,timestamp_s,timestamp_ms,imu1_accel_x,imu1_accel_y,imu1_accel_z,imu1_gyro_x,imu1_gyro_y,imu1_gyro_z,imu1_mag_x,imu1_mag_y,imu1_mag_z,imu2_accel_x,imu2_accel_y,imu2_accel_z,imu2_gyro_x,imu2_gyro_y,imu2_gyro_z,imu2_mag_x,imu2_mag_y,imu2_mag_z,high_g_accel_x,high_g_accel_y,high_g_accel_z,baro1_temp,baro1_pres,baro2_temp,baro2_pres,gps_lat,gps_long,gps_alt,battery_voltage,pyro_cont,heading,vtg,pos_x,pos_y,pos_z,vel_x,vel_y,vel_z,q_x,q_y,q_z,q_w,state,baro_pres_avg,gps_lat_mod,gps_long_mod,imu1_accel_x_real,imu1_accel_y_real,imu1_accel_z_real,imu2_accel_x_real,imu2_accel_y_real,imu2_accel_z_real,imu1_gyro_x_real,imu1_gyro_y_real,imu1_gyro_z_real,imu2_gyro_x_real,imu2_gyro_y_real,imu2_gyro_z_real,imu1_mag_x_real,imu1_mag_y_real,imu1_mag_z_real,imu2_mag_x_real,imu2_mag_y_real,imu2_mag_z_real,imu_accel_x_avg,imu_accel_y_avg,imu_accel_z_avg,imu_gyro_x_avg,imu_gyro_y_avg,imu_gyro_z_avg,imu_mag_x_avg,imu_mag_y_avg,imu_mag_z_avg,high_g_accel_x_real,high_g_accel_y_real,high_g_accel_z_real,baro_temp_avg
34071,4330363,0,4,1341,12,-47,105,70,3918,-1397,-3244,-11,1347,1,36,17,-2,3959,1324,-653,-192,-16,-3840,34.89,0.9890056748087837,32.53,0.9981939304219096,3859.986572265625,-7606.27978515625,20.100000381469727,12.194717407226562,0,0.0,0.0,0.0,0.0,3.803680391952774,0.0,0.0,0.0,0.0,0.0,0.0,0.0,11,0.9935998026153466,38.999776204427086,-76.1046630859375,0.0287138712,9.626325319800001,0.0861416136,-0.07896314580000001,9.6693961266,0.0071784678,-0.0574211496125,0.1282812916875,0.085520861125,0.04398215715,0.0207693519875,-0.002443453175,2.27244,-0.81026,-1.88152,2.29622,0.76792,-0.37874,-0.025124637300000002,9.6478607232,0.0466600407,-0.00671949623125,0.07452532183749999,0.041538703975,2.2843299999999997,-0.021169999999999967,-1.13013,-5.64864,-0.47072,-112.9728,33.71
34072,4330514,0,9,1347,13,-55,113,71,3899,-1392,-3258,-2,1348,1,24,9,0,3964,1326,-629,-176,-64,-3904,34.9,0.9888181593881076,32.53,0.9981544534912412,3859.986572265625,-7606.27978515625,20.100000381469727,12.194717407226562,0,0.0,0.0,0.0,0.0,3.803680391952774,0.0,0.0,0.0,0.0,0.0,0.0,0.0,11,0.9934863064396744,38.999776204427086,-76.1046630859375,0.0646062102,9.6693961266,0.0933200814,-0.0143569356,9.6765745944,0.0071784678,-0.06719496231250001,0.13805510438750002,0.0867425877125,0.0293214381,0.0109955392875,0.0,2.26142,-0.80736,-1.88964,2.29912,0.76908,-0.36482,0.0251246373,9.6729853605,0.050249274600000005,-0.018936762106250005,0.0745253218375,0.04337129385625,2.28027,-0.01913999999999999,-1.12723,-5.17792,-1.88288,-114.85568,33.715
34073,4330664,0,9,1345,14,-45,112,81,3917,-1409,-3255,-4,1350,-1,37,22,-3,3964,1326,-629,-176,-16,-3744,34.89,0.989094497902788,32.54,0.998282753515914,3859.986572265625,-7606.27978515625,20.100000381469727,12.194717407226562,0,0.0,0.0,0.0,0.0,3.803680391952774,0.0,0.0,0.0,0.0,0.0,0.0,0.0,11,0.993688625709351,38.999776204427086,-76.1046630859375,0.0646062102,9.655039191,0.10049854920000001,-0.0287138712,9.69093153,-0.0071784678,-0.0549776964375,0.13683337780000002,0.09895985358750001,0.0452038837375,0.026877984925,-0.0036651797625,2.27186,-0.8172200000000001,-1.8879,2.29912,0.76908,-0.36482,0.017946169499999998,9.6729853605,0.0466600407,-0.004886906350000001,0.08185568136250002,0.047647336912500005,2.2854900000000002,-0.024070000000000036,-1.12636,-5.17792,-0.47072,-110.14848,33.715
34074,4331263,0,8,1338,18,-56,102,79,3894,-1411,-3215,0,1351,4,27,8,1,3962,1363,-648,-160,-48,-3920,34.83,0.9892622748581298,32.49,0.9984900074019244,3859.986572265625,-7606.27978515625,20.100000381469727,12.194717407226562,0,0.0,0.0,0.0,0.0,3.803680391952774,0.0,0.0,0.0,0.0,0.0,0.0,0.0,11,0.9938761411300271,38.999776204427086,-76.1046630859375,0.0574277424,9.6047899164,0.1292124204,0.0,9.6981099978,0.0287138712,-0.06841668890000001,0.12461611192500001,0.09651640041250001,0.032986617862500005,0.0097738127,0.0012217265875,2.25852,-0.81838,-1.8647,2.2979600000000002,0.79054,-0.37584,0.0287138712,9.651449957099999,0.0789631458,-0.017715035518750002,0.06719496231250001,0.048869063500000004,2.2782400000000003,-0.013919999999999988,-1.12027,-4.7072,-1.41216,-115.3264,33.66
34075,4331413,0,7,1346,10,-54,98,75,3894,-1411,-3215,1,1348,0,27,9,5,3972,1340,-643,-208,-32,-3840,34.84,0.9891833209967924,32.52,0.998519615099926,3859.986572265625,-7606.27978515625,20.100000381469727,12.194717407226562,0,0.0,0.0,0.0,0.0,3.803680391952774,0.0,0.0,0.0,0.0,0.0,0.0,0.0,11,0.9938514680483592,38.999776204427086,-76.1046630859375,0.050249274600000005,9.6622176588,0.071784678,0.0071784678,9.6765745944,0.0,-0.06597323572500001,0.11972920557500001,0.09162949406250001,0.032986617862500005,0.0109955392875,0.0061086329375000005,2.25852,-0.81838,-1.8647,2.30376,0.7772,-0.37294,0.0287138712,9.669396126599999,0.035892339,-0.016493308931250002,0.06536237243125001,0.048869063500000004,2.2811399999999997,-0.020589999999999997,-1.11882,-6.11936,-0.94144,-112.9728,33.68000000000001
34076,4331563,0,7,1345,9,-56,108,83,3886,-1387,-3248,-4,1344,2,34,4,13,3940,1306,-656,-208,-128,-3872,34.85,0.9891339748334568,32.52,0.99840118430792,3859.986572265625,-7606.27978515625,20.100000381469727,12.194717407226562,0,0.0,0.0,0.0,0.0,3.803680391952774,0.0,0.0,0.0,0.0,0.0,0.0,0.0,11,0.9937675795706884,38.999776204427086,-76.1046630859375,0.050249274600000005,9.655039191,0.0646062102,-0.0287138712,9.6478607232,0.0143569356,-0.06841668890000001,0.13194647145000002,0.1014033067625,0.041538703975,0.00488690635,0.0158824456375,2.25388,-0.80446,-1.88384,2.2852,0.75748,-0.38048,0.010767701700000002,9.6514499571,0.0394815729,-0.013438992462500004,0.06841668890000001,0.0586428762,2.26954,-0.023489999999999955,-1.13216,-6.11936,-3.76576,-113.91424,33.685
34077,4331714,0,6,1342,9,-44,118,80,3913,-1395,-3246,-10,1341,-1,47,14,-7,3979,1319,-642,-208,-64,-3904,34.87,0.988976067110782,32.54,0.9982235381199112,3859.986572265625,-7606.27978515625,20.100000381469727,12.194717407226562,0,0.0,0.0,0.0,0.0,3.803680391952774,0.0,0.0,0.0,0.0,0.0,0.0,0.0,11,0.9935998026153465,38.999776204427086,-76.1046630859375,0.0430708068,9.6335037876,0.0646062102,-0.071784678,9.626325319800001,-0.0071784678,-0.05375596985,0.144163737325,0.09773812700000001,0.0574211496125,0.017104172225000002,-0.008552086112500001,2.26954,-0.8091,-1.88268,2.30782,0.76502,-0.37236,-0.014356935600000002,9.6299145537,0.0287138712,0.0018325898812499991,0.080633954775,0.044593020443750006,2.2886800000000003,-0.022040000000000004,-1.12752,-6.11936,-1.88288,-114.85568,33.705
34078,4331864,0,6,1342,22,-39,119,71,3923,-1422,-3221,-2,1346,3,45,13,-8,3979,1319,-642,-208,16,-3824,34.87,0.988906982482112,32.53,0.9984209227732544,3859.986572265625,-7606.27978515625,20.100000381469727,12.194717407226562,0,0.0,0.0,0.0,0.0,3.803680391952774,0.0,0.0,0.0,0.0,0.0,0.0,0.0,11,0.9936639526276831,38.999776204427086,-76.1046630859375,0.0430708068,9.6335037876,0.15792629160000002,-0.0143569356,9.6622176588,0.0215354034,-0.047647336912500005,0.1453854639125,0.0867425877125,0.0549776964375,0.0158824456375,-0.0097738127,2.27534,-0.82476,-1.86818,2.30782,0.76502,-0.37236,0.014356935599999999,9.6478607232,0.08973084750000002,0.0036651797624999982,0.080633954775,0.03848438750625,2.2915799999999997,-0.029870000000000008,-1.12027,-6.11936,0.47072,-112.50208,33.7
34079,4332015,0,11,1341,16,-30,96,78,3923,-1422,-3221,-10,1349,4,35,16,3,3958,1305,-640,-160,-64,-3808,34.87,0.9888477670861092,32.52,0.998272884283247,3859.986572265625,-7606.27978515625,20.100000381469727,12.194717407226562,0,0.0,0.0,0.0,0.0,3.803680391952774,0.0,0.0,0.0,0.0,0.0,0.0,0.0,11,0.9935603256846781,38.999776204427086,-76.1046630859375,0.07896314580000001,9.626325319800001,0.1148554848,-0.071784678,9.683753062200001,0.0287138712,-0.036651797625,0.1172857524,0.09529467382500001,0.0427604305625,0.0195476254,0.0036651797625,2.27534,-0.82476,-1.86818,2.29564,0.7569,-0.3712,0.0035892339000000023,9.655039191,0.071784678,0.0030543164687499985,0.0684166889,0.049479926793750004,2.2854900000000002,-0.033930000000000016,-1.1196899999999999,-4.7072,-1.88288,-112.03136,33.695
34080,4332165,0,8,1341,19,-43,96,83,3900,-1406,-3240,-3,1349,2,28,2,7,3979,1284,-639,-192,-32,-3824,34.87,0.988906982482112,32.55,0.9983123612139156,3859.986572265625,-7606.27978515625,20.100000381469727,12.194717407226562,0,0.0,0.0,0.0,0.0,3.803680391952774,0.0,0.0,0.0,0.0,0.0,0.0,0.0,11,0.9936096718480139,38.999776204427086,-76.1046630859375,0.0574277424,9.626325319800001,0.1363908882,-0.0215354034,9.683753062200001,0.0143569356,-0.0525342432625,0.1172857524,0.1014033067625,0.034208344450000004,0.002443453175,0.008552086112500001,2.262,-0.81548,-1.8792,2.30782,0.74472,-0.37062,0.0179461695,9.655039191,0.0753739119,-0.009162949406249999,0.0598646027875,0.0549776964375,2.28491,-0.03537999999999997,-1.12491,-5.64864,-0.94144,-112.50208,33.709999999999994
34081,4332315,0,6,1337,13,-56,113,80,3936,-1403,-3304,-7,1350,-3,37,16,10,3979,1284,-639,-192,-16,-3920,34.87,0.9887984209227731,32.52,0.9982531458179128,3859.986572265625,-7606.27978515625,20.200000762939453,12.194717407226562,0,0.0,0.0,0.0,0.0,3.803680391952774,0.0,0.0,0.0,0.0,0.0,0.0,0.0,11,0.993525783370343,38.999776204427086,-76.1046630859375,0.0430708068,9.5976114486,0.0933200814,-0.050249274600000005,9.69093153,-0.0215354034,-0.06841668890000001,0.13805510438750002,0.09773812700000001,0.0452038837375,0.0195476254,0.012217265875000001,2.28288,-0.81374,-1.91632,2.30782,0.74472,-0.37062,-0.0035892339000000023,9.6442714893,0.035892339,-0.011606402581250005,0.07880136489375,0.0549776964375,2.29535,-0.034509999999999985,-1.14347,-5.64864,-0.47072,-115.3264,33.695
34082,4332466,0,8,1336,11,-37,101,69,3862,-1417,-3239,-6,1348,-4,36,14,-12,3974,1309,-671,-224,-64,-3856,34.87,0.9887984209227731,32.53,0.9982630150505798,3859.986572265625,-7606.27978515625,20.200000762939453,12.194717407226562,0,0.0,0.0,0.0,0.0,3.803680391952774,0.0,0.0,0.0,0.0,0.0,0.0,0.0,11,0.9935307179866765,38.999776204427086,-76.1046630859375,0.0574277424,9.590432980800001,0.07896314580000001,-0.0430708068,9.6765745944,-0.0287138712,-0.0452038837375,0.12339438533750001,0.0842991345375,0.04398215715,0.017104172225000002,-0.01466071905,2.23996,-0.82186,-1.87862,2.30492,0.75922,-0.38918,0.007178467800000001,9.6335037876,0.025124637300000002,-0.0006108632937499997,0.07024927878125001,0.03481920774375,2.27244,-0.031320000000000014,-1.1339,-6.59008,-1.88288,-113.44352,33.7
34083,4332616,0,10,1343,16,-45,122,73,3862,-1417,-3239,-1,1349,1,43,9,-2,3966,1320,-621,-176,-16,-3968,34.88,0.9889958055761164,32.52,0.9983814458425856,3859.986572265625,-7606.27978515625,20.200000762939453,12.194717407226562,0,0.0,0.0,0.0,0.0,3.803680391952774,0.0,0.0,0.0,0.0,0.0,0.0,0.0,11,0.993688625709351,38.999776204427086,-76.1046630859375,0.071784678,9.6406822554,0.1148554848,-0.0071784678,9.683753062200001,0.0071784678,-0.0549776964375,0.149050643675,0.0891860408875,0.0525342432625,0.0109955392875,-0.002443453175,2.23996,-0.82186,-1.87862,2.30028,0.7656000000000001,-0.36018,0.0323031051,9.6622176588,0.061016976300000005,-0.0012217265874999994,0.08002309148125,0.04337129385625,2.27012,-0.02812999999999999,-1.1194,-5.17792,-0.47072,-116.73856,33.7
34084,4332767,0,6,1344,19,-40,105,90,3877,-1404,-3275,-3,1348,2,33,9,13,3993,1295,-675,-208,-32,-3936,34.88,0.9889859363434492,32.52,0.9984110535405872,3859.986572265625,-7606.27978515625,20.200000762939453,12.194717407226562,0,0.0,0.0,0.0,0.0,3.803680391952774,0.0,0.0,0.0,0.0,0.0,0.0,0.0,11,0.9936984949420182,38.999776204427086,-76.1046630859375,0.0430708068,9.6478607232,0.1363908882,-0.0215354034,9.6765745944,0.0143569356,-0.048869063500000004,0.1282812916875,0.109955392875,0.0403169773875,0.0109955392875,0.0158824456375,2.24866,-0.81432,-1.8995,2.31594,0.7511,-0.3915,0.0107677017,9.6622176588,0.0753739119,-0.004276043056250001,0.0696384154875,0.06291891925625,2.2823,-0.03161000000000003,-1.1455,-6.11936,-0.94144,-115.79712,33.7
34085,4332917,0,9,1343,17,-60,106,88,3877,-1401,-3324,-7,1345,-1,28,13,2,3993,1295,-675,-144,-32,-3872,34.87,0.9890155440414508,32.53,0.9984801381692572,3859.986572265625,-7606.27978515625,20.200000762939453,12.194717407226562,0,0.0,0.0,0.0,0.0,3.803680391952774,0.0,0.0,0.0,0.0,0.0,0.0,0.0,11,0.993747841105354,38.999776204427086,-76.1046630859375,0.0646062102,9.6406822554,0.12203395260000001,-0.050249274600000005,9.655039191,-0.0071784678,-0.07330359525,0.129503018275,0.1075119397,0.034208344450000004,0.0158824456375,0.002443453175,2.24866,-0.81258,-1.92792,2.31594,0.7511,-0.3915,0.007178467799999998,9.6478607232,0.0574277424,-0.0195476254,0.07269273195624999,0.0549776964375,2.2823,-0.03073999999999999,-1.15971,-4.23648,-0.94144,-113.91424,33.7
34086,4333067,0,7,1345,13,-55,105,74,3886,-1398,-3217,-6,1346,2,33,10,-10,3981,1316,-662,-256,-32,-3824,34.88,0.9889464594127808,32.52,0.9985097458672588,3859.986572265625,-7606.27978515625,20.200000762939453,12.194717407226562,0,0.0,0.0,0.0,0.0,3.803680391952774,0.0,0.0,0.0,0.0,0.0,0.0,0.0,11,0.9937281026400198,38.999776204427086,-76.1046630859375,0.050249274600000005,9.655039191,0.0933200814,-0.0430708068,9.6622176588,0.0143569356,-0.06719496231250001,0.1282812916875,0.090407767475,0.0403169773875,0.012217265875000001,-0.012217265875000001,2.25388,-0.81084,-1.86586,2.30898,0.76328,-0.38396,0.0035892339000000023,9.6586284249,0.0538385085,-0.013438992462500004,0.07024927878125,0.039095250799999995,2.2814300000000003,-0.023780000000000023,-1.12491,-7.53152,-0.94144,-112.50208,33.7
34087,4333218,0,11,1341,12,-53,99,68,3905,-1389,-3255,-3,1346,1,38,6,-10,3965,1312,-636,-272,-208,-3840,34.87,0.9887984209227731,32.51,0.9984307920059216,3859.986572265625,-7606.27978515625,20.200000762939453,12.194717407226562,0,0.0,0.0,0.0,0.0,3.803680391952774,0.0,0.0,0.0,0.0,0.0,0.0,0.0,11,0.9936146064643474,38.999776204427086,-76.1046630859375,0.07896314580000001,9.626325319800001,0.0861416136,-0.0215354034,9.6622176588,0.0071784678,-0.0647515091375,0.12095093216250001,0.08307740795,0.046425610325000005,0.007330359525,-0.012217265875000001,2.2649,-0.80562,-1.8879,2.2997,0.76096,-0.36888,0.028713871200000005,9.6442714893,0.0466600407,-0.009162949406249996,0.06414064584375001,0.0354300710375,2.2823,-0.022330000000000017,-1.12839,-8.00224,-6.11936,-112.9728,33.69
34088,4333368,0,11,1343,15,-38,115,84,3905,-1389,-3255,-2,1344,1,30,11,6,3971,1328,-641,-176,-80,-3824,34.88,0.988837897853442,32.52,0.9983814458425856,3859.986572265625,-7606.27978515625,20.200000762939453,12.194717407226562,0,0.0,0.0,0.0,0.0,3.803680391952774,0.0,0.0,0.0,0.0,0.0,0.0,0.0,11,0.9936096718480139,38.999776204427086,-76.1046630859375,0.07896314580000001,9.6406822554,0.107677017,-0.0143569356,9.6478607232,0.0071784678,-0.046425610325000005,0.14049855756250001,0.10262503335,0.036651797625,0.0134389924625,0.007330359525,2.2649,-0.80562,-1.8879,2.3031800000000002,0.77024,-0.37178,0.03230310510000001,9.6442714893,0.0574277424,-0.004886906350000001,0.0769687750125,0.0549776964375,2.28404,-0.017689999999999984,-1.12984,-5.17792,-2.3536,-112.50208,33.7
34089,4333519,0,6,1345,17,-31,101,85,3923,-1380,-3241,-9,1343,0,45,11,7,3971,1328,-641,-240,-16,-3904,34.87,0.9891339748334568,32.54,0.9981248457932396,3859.986572265625,-7606.27978515625,20.200000762939453,12.194717407226562,0,0.0,0.0,0.0,0.0,3.803680391952774,0.0,0.0,0.0,0.0,0.0,0.0,0.0,11,0.9936294103133482,38.999776204427086,-76.1046630859375,0.0430708068,9.655039191,0.12203395260000001,-0.0646062102,9.6406822554,0.0,-0.0378735242125,0.12339438533750001,0.1038467599375,0.0549776964375,0.0134389924625,0.008552086112500001,2.27534,-0.8004,-1.87978,2.3031800000000002,0.77024,-0.37178,-0.0107677017,9.6478607232,0.061016976300000005,0.0085520861125,0.06841668890000001,0.056199423025,2.28926,-0.015079999999999982,-1.12578,-7.0608,-0.47072,-114.85568,33.705
34090,4333669,0,5,1344,16,-52,104,76,3924,-1404,-3274,-10,1349,3,28,5,3,3971,1320,-653,-176,-16,-3920,34.88,0.9887786824574388,32.54,0.9980754996299038,3859.986572265625,-7606.27978515625,20.200000762939453,12.194717407226562,0,0.0,0.0,0.0,0.0,3.803680391952774,0.0,0.0,0.0,0.0,0.0,0.0,0.0,11,0.9934270910436713,38.999776204427086,-76.1046630859375,0.035892339,9.6478607232,0.1148554848,-0.071784678,9.683753062200001,0.0215354034,-0.06352978255,0.1270595651,0.09285122065000001,0.034208344450000004,0.0061086329375000005,0.0036651797625,2.27592,-0.81432,-1.89892,2.3031800000000002,0.7656000000000001,-0.37874,-0.0179461695,9.665806892700001,0.0681954441,-0.014660719049999996,0.06658409901875,0.048258200206250004,2.28955,-0.024359999999999993,-1.13883,-5.17792,-0.47072,-115.3264,33.71
34091,4333819,0,7,1340,10,-45,108,71,3889,-1418,-3309,-13,1348,1,35,0,-10,3952,1321,-661,-240,-64,-3888,34.88,0.9888576363187762,32.55,0.9980458919319024,3859.986572265625,-7606.27978515625,20.200000762939453,12.194717407226562,0,0.0,0.0,0.0,0.0,3.803680391952774,0.0,0.0,0.0,0.0,0.0,0.0,0.0,11,0.9934517641253393,38.999776204427086,-76.1046630859375,0.050249274600000005,9.619146852,0.071784678,-0.0933200814,9.6765745944,0.0071784678,-0.0549776964375,0.13194647145000002,0.0867425877125,0.0427604305625,0.0,-0.012217265875000001,2.25562,-0.8224400000000001,-1.91922,2.29216,0.76618,-0.38338,-0.0215354034,9.6478607232,0.039481572900000005,-0.0061086329375000005,0.06597323572500001,0.037262660918749996,2.2738899999999997,-0.028130000000000044,-1.1513,-7.0608,-1.88288,-114.38496,33.715
34092,4333970,0,12,1342,13,-57,116,68,3889,-1418,-3309,-3,1348,3,34,3,-5,3969,1335,-665,-208,-96,-3840,34.89,0.9888477670861092,32.55,0.9980458919319024,3859.986572265625,-7606.27978515625,20.200000762939453,12.194717407226562,0,0.0,0.0,0.0,0.0,3.803680391952774,0.0,0.0,0.0,0.0,0.0,0.0,0.0,11,0.9934468295090058,38.999776204427086,-76.1046630859375,0.0861416136,9.6335037876,0.0933200814,-0.0215354034,9.6765745944,0.0215354034,-0.06963841548750001,0.14172028415000001,0.08307740795,0.041538703975,0.0036651797625,-0.0061086329375000005,2.25562,-0.8224400000000001,-1.91922,2.30202,0.7743,-0.3857,0.0323031051,9.655039191,0.0574277424,-0.014049855756250004,0.07269273195625,0.03848438750625,2.27882,-0.024070000000000036,-1.15246,-6.11936,-2.82432,-112.9728,33.72
34093,4334120,0,14,1343,14,-53,104,88,3888,-1408,-3231,-5,1347,-4,18,15,12,3969,1335,-665,-160,-48,-3936,34.88,0.989153713298791,32.55,0.9982926227485812,3859.986572265625,-7606.27978515625,20.200000762939453,12.194717407226562,0,0.0,0.0,0.0,0.0,3.803680391952774,0.0,0.0,0.0,0.0,0.0,0.0,0.0,11,0.9937231680236861,38.999776204427086,-76.1046630859375,0.10049854920000001,9.6406822554,0.10049854920000001,-0.035892339,9.6693961266,-0.0287138712,-0.0647515091375,0.1270595651,0.1075119397,0.021991078575,0.0183258988125,0.01466071905,2.25504,-0.81664,-1.87398,2.30202,0.7743,-0.3857,0.03230310510000001,9.655039191,0.035892339,-0.021380215281249997,0.07269273195624999,0.061086329375,2.27853,-0.021170000000000022,-1.12984,-4.7072,-1.41216,-115.79712,33.715
34094,4334270,0,6,1344,9,-33,110,85,3905,-1405,-3254,-17,1347,-6,38,6,11,3968,1315,-636,-176,-16,-3840,34.89,0.9887786824574388,32.55,0.9982531458179128,3859.986572265625,-7606.27978515625,20.200000762939453,12.194717407226562,0,0.0,0.0,0.0,0.0,3.803680391952774,0.0,0.0,0.0,0.0,0.0,0.0,0.0,11,0.9935159141376758,38.999776204427086,-76.1046630859375,0.0430708068,9.6478607232,0.0646062102,-0.12203395260000001,9.6693961266,-0.0430708068,-0.0403169773875,0.13438992462500002,0.1038467599375,0.046425610325000005,0.007330359525,0.0134389924625,2.2649,-0.8149,-1.88732,2.30144,0.7627,-0.36888,-0.039481572900000005,9.658628424900002,0.0107677017,0.003054316468750002,0.07086014207500001,0.0586428762,2.28317,-0.026099999999999957,-1.1281,-5.17792,-0.47072,-112.9728,33.72
34095,4334421,0,7,1340,14,-44,111,69,3907,-1409,-3277,-4,1347,4,42,12,-1,3991,1309,-651,-192,-16,-3840,34.89,0.9891635825314582,32.55,0.9980853688625708,3859.986572265625,-7606.27978515625,20.200000762939453,12.194717407226562,0,0.0,0.0,0.0,0.0,3.803680391952774,0.0,0.0,0.0,0.0,0.0,0.0,0.0,11,0.9936244756970145,38.999776204427086,-76.1046630859375,0.050249274600000005,9.619146852,0.10049854920000001,-0.0287138712,9.6693961266,0.0287138712,-0.05375596985,0.13561165121250002,0.0842991345375,0.051312516675,0.01466071905,-0.0012217265875,2.26606,-0.8172200000000001,-1.90066,2.31478,0.75922,-0.37758,0.010767701700000002,9.6442714893,0.0646062102,-0.0012217265874999994,0.07513618513125,0.041538703975,2.29042,-0.029000000000000026,-1.1391200000000001,-5.64864,-0.47072,-112.9728,33.72
34096,4334571,0,11,1342,18,-51,124,76,3907,-1409,-3277,-6,1345,4,39,12,-1,3991,1309,-651,-224,-32,-3824,34.89,0.9889365901801136,32.55,0.9982334073525784,3859.986572265625,-7606.27978515625,20.200000762939453,12.194717407226562,0,0.0,0.0,0.0,0.0,3.803680391952774,0.0,0.0,0.0,0.0,0.0,0.0,0.0,11,0.993584998766346,38.999776204427086,-76.1046630859375,0.07896314580000001,9.6335037876,0.1292124204,-0.0430708068,9.655039191,0.0287138712,-0.062308055962500004,0.15149409685,0.09285122065000001,0.047647336912500005,0.01466071905,-0.0012217265875,2.26606,-0.8172200000000001,-1.90066,2.31478,0.75922,-0.37758,0.017946169500000005,9.6442714893,0.0789631458,-0.007330359525,0.08307740795,0.045814747031250005,2.29042,-0.029000000000000026,-1.1391200000000001,-6.59008,-0.94144,-112.50208,33.72
34097,4334722,0,7,1338,20,-47,115,83,3906,-1421,-3269,-3,1344,2,44,8,-1,3950,1333,-671,-112,-112,-3856,34.88,0.9889859363434492,32.56,0.998213668887244,3859.986572265625,-7606.27978515625,20.200000762939453,12.194717407226562,0,0.0,0.0,0.0,0.0,3.803680391952774,0.0,0.0,0.0,0.0,0.0,0.0,0.0,11,0.9935998026153466,38.999776204427086,-76.1046630859375,0.050249274600000005,9.6047899164,0.143569356,-0.0215354034,9.6478607232,0.0143569356,-0.0574211496125,0.14049855756250001,0.1014033067625,0.05375596985,0.0097738127,-0.0012217265875,2.26548,-0.82418,-1.89602,2.291,0.77314,-0.38918,0.014356935600000002,9.6263253198,0.07896314580000001,-0.0018325898812499991,0.07513618513125,0.0500907900875,2.2782400000000003,-0.025519999999999987,-1.1426,-3.29504,-3.29504,-113.44352,33.72
34098,4334872,0,5,1344,18,-48,110,87,3925,-1406,-3302,-5,1350,-1,17,9,8,3955,1323,-661,-144,-112,-3888,34.89,0.9888872440167776,32.56,0.9978781149765604,3859.986572265625,-7606.27978515625,20.200000762939453,12.194717407226562,0,0.0,0.0,0.0,0.0,3.803680391952774,0.0,0.0,0.0,0.0,0.0,0.0,0.0,11,0.993382679496669,38.999776204427086,-76.1046630859375,0.035892339,9.6478607232,0.1292124204,-0.035892339,9.69093153,-0.0071784678,-0.0586428762,0.13438992462500002,0.1062902131125,0.0207693519875,0.0109955392875,0.0097738127,2.2765,-0.81548,-1.91516,2.2939,0.76734,-0.38338,0.0,9.6693961266,0.0610169763,-0.018936762106249998,0.07269273195625,0.05803201290625,2.2851999999999997,-0.02406999999999998,-1.14927,-4.23648,-3.29504,-114.38496,33.725
34099,4335022,0,5,1341,12,-53,107,78,3879,-1411,-3219,-10,1353,-7,35,12,1,3976,1331,-644,-208,-16,-3888,34.88,0.9888773747841104,32.55,0.9981741919565754,3859.986328125,-7606.27978515625,20.600000381469727,12.194717407226562,0,0.0,0.0,0.0,0.0,3.803680391952774,0.0,0.0,0.0,0.0,0.0,0.0,0.0,11,0.9935257833703429,38.99977213541667,-76.1046630859375,0.035892339,9.626325319800001,0.0861416136,-0.071784678,9.7124669334,-0.050249274600000005,-0.0647515091375,0.13072474486250002,0.09529467382500001,0.0427604305625,0.01466071905,0.0012217265875,2.24982,-0.81838,-1.86702,2.30608,0.77198,-0.37352,-0.0179461695,9.6693961266,0.017946169499999998,-0.010995539287499998,0.07269273195625,0.048258200206250004,2.27795,-0.0232,-1.1202699999999999,-6.11936,-0.47072,-114.38496,33.715
34100,4335173,0,9,1342,18,-40,119,68,3879,-1411,-3219,-5,1350,3,43,18,-4,3976,1331,-644,-80,-112,-3984,34.88,0.9889464594127808,32.54,0.998282753515914,3859.986328125,-7606.27978515625,20.600000381469727,12.194717407226562,0,0.0,0.0,0.0,0.0,3.803680391952774,0.0,0.0,0.0,0.0,0.0,0.0,0.0,11,0.9936146064643474,38.99977213541667,-76.1046630859375,0.0646062102,9.6335037876,0.1292124204,-0.035892339,9.69093153,0.0215354034,-0.048869063500000004,0.1453854639125,0.08307740795,0.0525342432625,0.021991078575,-0.00488690635,2.24982,-0.81838,-1.86702,2.30608,0.77198,-0.37352,0.014356935599999999,9.6622176588,0.0753739119,0.0018325898812499991,0.08368827124375,0.0390952508,2.27795,-0.0232,-1.1202699999999999,-2.3536,-3.29504,-117.20928,33.71
34101,4335323,0,10,1338,18,-47,115,74,3876,-1405,-3257,-3,1347,-2,47,18,4,3945,1330,-651,-144,-64,-3856,34.88,0.9889859363434492,32.55,0.998282753515914,3859.986328125,-7606.27978515625,20.600000381469727,12.194717407226562,0,0.0,0.0,0.0,0.0,3.803680391952774,0.0,0.0,0.0,0.0,0.0,0.0,0.0,11,0.9936343449296816,38.99977213541667,-76.1046630859375,0.071784678,9.6047899164,0.1292124204,-0.0215354034,9.6693961266,-0.0143569356,-0.0574211496125,0.14049855756250001,0.090407767475,0.0574211496125,0.021991078575,0.00488690635,2.24808,-0.8149,-1.88906,2.2881,0.7714,-0.37758,0.025124637300000002,9.6370930215,0.0574277424,0.0,0.08124481806875,0.0476473369125,2.26809,-0.02174999999999999,-1.1333199999999999,-4.23648,-1.88288,-113.44352,33.715
34102,4335474,0,8,1339,24,-40,110,82,3889,-1404,-3269,-3,1347,3,30,10,1,3965,1337,-682,-208,-16,-3872,34.88,0.9888773747841104,32.54,0.998282753515914,3859.986328125,-7606.27978515625,20.600000381469727,12.194717407226562,0,0.0,0.0,0.0,0.0,3.803680391952774,0.0,0.0,0.0,0.0,0.0,0.0,0.0,11,0.9935800641500122,38.99977213541667,-76.1046630859375,0.0574277424,9.6119683842,0.1722832272,-0.0215354034,9.6693961266,0.0215354034,-0.048869063500000004,0.13438992462500002,0.100181580175,0.036651797625,0.012217265875000001,0.0012217265875,2.25562,-0.81432,-1.89602,2.2997,0.77546,-0.39556,0.0179461695,9.640682255400002,0.09690931529999999,-0.0061086329375000005,0.07330359525,0.05070165338125,2.27766,-0.019430000000000003,-1.14579,-6.11936,-0.47072,-113.91424,33.71
34103,4335624,0,5,1342,16,-50,103,85,3902,-1418,-3272,-7,1347,-1,22,11,6,3966,1313,-639,-160,48,-3872,34.87,0.9888477670861092,32.55,0.9979570688378978,3859.986328125,-7606.27978515625,20.600000381469727,12.194717407226562,0,0.0,0.0,0.0,0.0,3.803680391952774,0.0,0.0,0.0,0.0,0.0,0.0,0.0,11,0.9934024179620036,38.99977213541667,-76.1046630859375,0.035892339,9.6335037876,0.1148554848,-0.050249274600000005,9.6693961266,-0.0071784678,-0.061086329375000005,0.1258378385125,0.1038467599375,0.026877984925,0.0134389924625,0.007330359525,2.26316,-0.8224400000000001,-1.8977600000000001,2.30028,0.76154,-0.37062,-0.007178467800000001,9.6514499571,0.0538385085,-0.017104172225000002,0.0696384154875,0.05558855973125,2.28172,-0.030450000000000033,-1.13419,-4.7072,1.41216,-113.91424,33.709999999999994
34104,4335774,0,8,1344,15,-49,108,66,3902,-1418,-3272,-1,1348,-2,40,10,-5,3966,1313,-639,-208,-64,-3952,34.88,0.9887095978287688,32.55,0.9983123612139156,3859.986328125,-7606.27978515625,20.600000381469727,12.194717407226562,0,0.0,0.0,0.0,0.0,3.803680391952774,0.0,0.0,0.0,0.0,0.0,0.0,0.0,11,0.9935109795213422,38.99977213541667,-76.1046630859375,0.0574277424,9.6478607232,0.107677017,-0.0071784678,9.6765745944,-0.0143569356,-0.059864602787500006,0.13194647145000002,0.080633954775,0.048869063500000004,0.012217265875000001,-0.0061086329375000005,2.26316,-0.8224400000000001,-1.8977600000000001,2.30028,0.76154,-0.37062,0.025124637300000002,9.6622176588,0.0466600407,-0.005497769643750001,0.0720818686625,0.03726266091875,2.28172,-0.030450000000000033,-1.13419,-6.11936,-1.88288,-116.26784,33.715
34105,4335925,0,10,1342,19,-55,111,72,3923,-1405,-3272,-6,1346,1,37,16,-9,3969,1343,-644,-256,0,-3824,34.88,0.9887786824574388,32.54,0.9980557611645694,3859.986328125,-7606.27978515625,20.600000381469727,12.194717407226562,0,0.0,0.0,0.0,0.0,3.803680391952774,0.0,0.0,0.0,0.0,0.0,0.0,0.0,11,0.9934172218110041,38.99977213541667,-76.1046630859375,0.071784678,9.6335037876,0.1363908882,-0.0430708068,9.6622176588,0.0071784678,-0.06719496231250001,0.13561165121250002,0.0879643143,0.0452038837375,0.0195476254,-0.0109955392875,2.27534,-0.8149,-1.8977600000000001,2.30202,0.77894,-0.37352,0.014356935600000002,9.6478607232,0.071784678,-0.010995539287500005,0.07757963830625,0.03848438750625,2.2886800000000003,-0.017979999999999996,-1.13564,-7.53152,0.0,-112.50208,33.71
34106,4336075,0,8,1338,17,-51,103,94,3892,-1433,-3270,-1,1349,3,39,20,8,3946,1342,-644,-272,-16,-3904,34.89,0.9888971132494448,32.54,0.998272884283247,3859.986328125,-7606.27978515625,20.600000381469727,12.194717407226562,0,0.0,0.0,0.0,0.0,3.803680391952774,0.0,0.0,0.0,0.0,0.0,0.0,0.0,11,0.9935849987663459,38.99977213541667,-76.1046630859375,0.0574277424,9.6047899164,0.12203395260000001,-0.0071784678,9.683753062200001,0.0215354034,-0.062308055962500004,0.1258378385125,0.114842299225,0.047647336912500005,0.024434531750000002,0.0097738127,2.25736,-0.83114,-1.8966,2.28868,0.77836,-0.37352,0.025124637300000002,9.6442714893,0.071784678,-0.007330359525,0.07513618513125,0.0623080559625,2.27302,-0.02638999999999997,-1.13506,-8.00224,-0.47072,-114.85568,33.715
34107,4336226,0,5,1340,18,-51,110,85,3880,-1418,-3259,-10,1346,2,39,17,5,3946,1342,-644,-224,-48,-3792,34.88,0.9887786824574388,32.53,0.9981544534912412,3859.986328125,-7606.27978515625,20.600000381469727,12.194717407226562,0,0.0,0.0,0.0,0.0,3.803680391952774,0.0,0.0,0.0,0.0,0.0,0.0,0.0,11,0.99346656797434,38.99977213541667,-76.1046630859375,0.035892339,9.619146852,0.1292124204,-0.071784678,9.6622176588,0.0143569356,-0.062308055962500004,0.13438992462500002,0.1038467599375,0.047647336912500005,0.0207693519875,0.0061086329375000005,2.2504,-0.8224400000000001,-1.89022,2.28868,0.77836,-0.37352,-0.0179461695,9.6406822554,0.071784678,-0.007330359525,0.07757963830625,0.0549776964375,2.26954,-0.022040000000000004,-1.13187,-6.59008,-1.41216,-111.56064,33.705
34108,4336376,0,5,1345,20,-51,102,76,3880,-1418,-3259,-10,1344,4,35,14,-7,3964,1320,-642,-272,-32,-3872,34.88,0.9887688132247716,32.53,0.9983123612139156,3859.986328125,-7606.27978515625,20.600000381469727,12.194717407226562,0,0.0,0.0,0.0,0.0,3.803680391952774,0.0,0.0,0.0,0.0,0.0,0.0,0.0,11,0.9935405872193437,38.99977213541667,-76.1046630859375,0.035892339,9.655039191,0.143569356,-0.071784678,9.6478607232,0.0287138712,-0.062308055962500004,0.12461611192500001,0.09285122065000001,0.0427604305625,0.017104172225000002,-0.008552086112500001,2.2504,-0.8224400000000001,-1.89022,2.29912,0.7656000000000001,-0.37236,-0.0179461695,9.6514499571,0.0861416136,-0.009773812700000002,0.07086014207500001,0.04214956726875001,2.2747599999999997,-0.02842,-1.13129,-8.00224,-0.94144,-113.91424,33.705
34109,4336526,0,8,1337,18,-52,110,74,3899,-1397,-3274,-4,1349,3,38,17,-4,3968,1330,-663,-288,-16,-3824,34.88,0.9887095978287688,32.53,0.9981544534912412,3859.986328125,-7606.27978515625,20.600000381469727,12.194717407226562,0,0.0,0.0,0.0,0.0,3.803680391952774,0.0,0.0,0.0,0.0,0.0,0.0,0.0,11,0.993432025660005,38.99977213541667,-76.1046630859375,0.0574277424,9.5976114486,0.1292124204,-0.0287138712,9.683753062200001,0.0215354034,-0.06352978255,0.13438992462500002,0.090407767475,0.046425610325000005,0.0207693519875,-0.00488690635,2.26142,-0.81026,-1.89892,2.30144,0.7714,-0.38454,0.0143569356,9.640682255400002,0.0753739119,-0.008552086112499996,0.07757963830625,0.0427604305625,2.2814300000000003,-0.019430000000000003,-1.14173,-8.47296,-0.47072,-112.50208,33.705
34110,4336677,0,11,1347,15,-48,107,86,3916,-1409,-3250,-1,1349,3,28,2,1,3975,1323,-653,-208,-16,-3904,34.87,0.9887984209227731,32.54,0.998272884283247,3859.986328125,-7606.27978515625,20.600000381469727,12.194717407226562,0,0.0,0.0,0.0,0.0,3.803680391952774,0.0,0.0,0.0,0.0,0.0,0.0,0.0,11,0.9935356526030101,38.99977213541667,-76.1046630859375,0.07896314580000001,9.6693961266,0.107677017,-0.0071784678,9.683753062200001,0.0215354034,-0.0586428762,0.13072474486250002,0.105068486525,0.034208344450000004,0.002443453175,0.0012217265875,2.27128,-0.8172200000000001,-1.885,2.3055,0.76734,-0.37874,0.035892339,9.676574594400002,0.0646062102,-0.012217265874999998,0.06658409901875001,0.05314510655625,2.2883899999999997,-0.024940000000000018,-1.13187,-6.11936,-0.47072,-114.85568,33.705
34111,4336827,0,8,1344,10,-51,111,82,3885,-1399,-3214,-7,1345,-2,39,23,12,3975,1323,-653,-224,-96,-3840,34.88,0.9890352825067852,32.52,0.9982235381199112,3859.986328125,-7606.27978515625,20.600000381469727,12.194717407226562,0,0.0,0.0,0.0,0.0,3.803680391952774,0.0,0.0,0.0,0.0,0.0,0.0,0.0,11,0.9936294103133482,38.99977213541667,-76.1046630859375,0.0574277424,9.6478607232,0.071784678,-0.050249274600000005,9.655039191,-0.0143569356,-0.062308055962500004,0.13561165121250002,0.100181580175,0.047647336912500005,0.0280997115125,0.01466071905,2.2533,-0.81142,-1.86412,2.3055,0.76734,-0.37874,0.003589233899999999,9.6514499571,0.0287138712,-0.007330359525,0.08185568136250002,0.0574211496125,2.2794,-0.022040000000000004,-1.12143,-6.59008,-2.82432,-112.9728,33.7
34112,4336977,0,5,1342,16,-57,113,79,3885,-1399,-3214,-15,1347,2,46,13,-5,3958,1319,-609,-288,-16,-3888,34.88,0.9888773747841104,32.5,0.9985294843325933,3859.986328125,-7606.27978515625,20.600000381469727,12.194717407226562,0,0.0,0.0,0.0,0.0,3.803680391952774,0.0,0.0,0.0,0.0,0.0,0.0,0.0,11,0.9937034295583518,38.99977213541667,-76.1046630859375,0.035892339,9.6335037876,0.1148554848,-0.107677017,9.6693961266,0.0143569356,-0.06963841548750001,0.13805510438750002,0.09651640041250001,0.056199423025,0.0158824456375,-0.0061086329375000005,2.2533,-0.81142,-1.86412,2.29564,0.76502,-0.35322,-0.035892338999999995,9.6514499571,0.0646062102,-0.006719496231250004,0.0769687750125,0.045203883737500006,2.27447,-0.0232,-1.10867,-8.47296,-0.47072,-114.38496,33.69
34113,4337127,0,7,1344,19,-48,116,67,3889,-1391,-3289,-5,1353,-2,45,21,1,3947,1322,-654,-160,-16,-3856,34.9,0.9888181593881076,32.53,0.9982630150505798,3859.986328125,-7606.27978515625,20.600000381469727,12.194717407226562,0,0.0,0.0,0.0,0.0,3.803680391952774,0.0,0.0,0.0,0.0,0.0,0.0,0.0,11,0.9935405872193437,38.99977213541667,-76.1046630859375,0.050249274600000005,9.6478607232,0.1363908882,-0.035892339,9.7124669334,-0.0143569356,-0.0586428762,0.14172028415000001,0.0818556813625,0.0549776964375,0.0256562583375,0.0012217265875,2.25562,-0.80678,-1.90762,2.28926,0.76676,-0.37932,0.007178467800000001,9.6801638283,0.061016976300000005,-0.0018325898812499991,0.08368827124375,0.041538703975,2.27244,-0.020010000000000028,-1.14347,-4.7072,-0.47072,-113.44352,33.715
34114,4337277,0,8,1343,15,-61,106,77,3886,-1391,-3260,-5,1345,1,27,11,0,3970,1325,-624,-144,-32,-3888,34.88,0.9889267209474464,32.51,0.9985985689612632,3859.986328125,-7606.27978515625,20.600000381469727,12.194717407226562,0,0.0,0.0,0.0,0.0,3.803680391952774,0.0,0.0,0.0,0.0,0.0,0.0,0.0,11,0.9937626449543548,38.99977213541667,-76.1046630859375,0.0574277424,9.6406822554,0.107677017,-0.035892339,9.655039191,0.0071784678,-0.0745253218375,0.129503018275,0.09407294723750001,0.032986617862500005,0.0134389924625,0.0,2.25388,-0.80678,-1.8908,2.3026,0.7685,-0.36192,0.0107677017,9.6478607232,0.0574277424,-0.0207693519875,0.07147100536874999,0.047036473618750005,2.2782400000000003,-0.019140000000000046,-1.12636,-4.23648,-0.94144,-114.38496,33.695
34115,4337428,0,8,1339,21,-57,108,85,3922,-1398,-3269,-3,1351,3,41,7,5,3970,1325,-624,-128,-64,-3888,34.88,0.9890550209721194,32.51,0.9984307920059216,3859.986328125,-7606.27978515625,20.600000381469727,12.194717407226562,0,0.0,0.0,0.0,0.0,3.803680391952774,0.0,0.0,0.0,0.0,0.0,0.0,0.0,11,0.9937429064890204,38.99977213541667,-76.1046630859375,0.0574277424,9.6119683842,0.1507478238,-0.0215354034,9.6981099978,0.0215354034,-0.06963841548750001,0.13194647145000002,0.1038467599375,0.0500907900875,0.008552086112500001,0.0061086329375000005,2.27476,-0.81084,-1.89602,2.3026,0.7685,-0.36192,0.0179461695,9.655039191,0.0861416136,-0.009773812700000002,0.07024927878125001,0.0549776964375,2.2886800000000003,-0.021170000000000022,-1.12897,-3.76576,-1.88288,-114.38496,33.695
34116,4337578,0,4,1341,13,-64,106,81,3922,-1398,-3269,-9,1347,-1,28,4,2,3962,1316,-657,-128,-80,-3872,34.87,0.9891833209967924,32.52,0.9983617073772514,3859.986328125,-7606.27978515625,20.600000381469727,12.194717407226562,0,0.0,0.0,0.0,0.0,3.803680391952774,0.0,0.0,0.0,0.0,0.0,0.0,0.0,11,0.993772514187022,38.99977213541667,-76.1046630859375,0.0287138712,9.626325319800001,0.0933200814,-0.0646062102,9.6693961266,-0.0071784678,-0.0781905016,0.129503018275,0.09895985358750001,0.034208344450000004,0.00488690635,0.002443453175,2.27476,-0.81084,-1.89602,2.2979600000000002,0.76328,-0.38106,-0.017946169499999998,9.6478607232,0.0430708068,-0.021991078575,0.0671949623125,0.05070165338125,2.28636,-0.023780000000000023,-1.13854,-3.76576,-2.3536,-113.91424,33.695
34117,4337728,0,7,1339,11,-48,106,71,3934,-1429,-3222,-7,1343,0,36,18,-10,3957,1348,-646,-208,-16,-3888,34.88,0.9889267209474464,32.51,0.9985492227979276,3859.986328125,-7606.27978515625,20.899999618530277,12.194717407226562,0,0.0,0.0,0.0,0.0,3.803680391952774,0.0,0.0,0.0,0.0,0.0,0.0,0.0,11,0.993737971872687,38.99977213541667,-76.1046630859375,0.050249274600000005,9.6119683842,0.07896314580000001,-0.050249274600000005,9.6406822554,0.0,-0.0586428762,0.129503018275,0.0867425877125,0.04398215715,0.021991078575,-0.012217265875000001,2.28172,-0.82882,-1.86876,2.29506,0.78184,-0.37468,0.0,9.6263253198,0.039481572900000005,-0.007330359525,0.07574704842499999,0.037262660918749996,2.2883899999999997,-0.02349000000000001,-1.12172,-6.11936,-0.47072,-114.38496,33.695
34118,4337879,0,7,1339,20,-46,119,67,3895,-1397,-3243,-3,1350,2,42,16,-2,3934,1318,-660,-144,-64,-3888,34.88,0.9889859363434492,32.51,0.9985492227979276,3859.986328125,-7606.27978515625,20.899999618530277,12.194717407226562,0,0.0,0.0,0.0,0.0,3.803680391952774,0.0,0.0,0.0,0.0,0.0,0.0,0.0,11,0.9937675795706884,38.99977213541667,-76.1046630859375,0.050249274600000005,9.6119683842,0.143569356,-0.0215354034,9.69093153,0.0143569356,-0.056199423025,0.1453854639125,0.0818556813625,0.051312516675,0.0195476254,-0.002443453175,2.2591,-0.81026,-1.88094,2.28172,0.76444,-0.38280000000000003,0.014356935600000002,9.6514499571,0.07896314580000001,-0.002443453174999999,0.08246654465625,0.03970611409375,2.27041,-0.022909999999999986,-1.1318700000000002,-4.23648,-1.88288,-114.38496,33.695
34119,4338029,0,9,1345,15,-48,107,82,3899,-1397,-3230,-6,1347,1,37,20,1,3934,1318,-660,-224,-16,-3904,34.87,0.9889563286454478,32.51,0.998272884283247,3859.986328125,-7606.27978515625,20.899999618530277,12.194717407226562,0,0.0,0.0,0.0,0.0,3.803680391952774,0.0,0.0,0.0,0.0,0.0,0.0,0.0,11,0.9936146064643474,38.99977213541667,-76.1046630859375,0.0646062102,9.655039191,0.107677017,-0.0430708068,9.6693961266,0.0071784678,-0.0586428762,0.13072474486250002,0.100181580175,0.0452038837375,0.024434531750000002,0.0012217265875,2.26142,-0.81026,-1.8734,2.28172,0.76444,-0.38280000000000003,0.0107677017,9.6622176588,0.0574277424,-0.00671949623125,0.07757963830625,0.05070165338125,2.27157,-0.022909999999999986,-1.1280999999999999,-6.59008,-0.47072,-114.85568,33.69
34120,4338180,0,5,1345,21,-43,113,86,3899,-1397,-3230,-9,1345,3,40,11,10,3994,1334,-661,-320,-32,-3824,34.87,0.9890155440414508,32.5,0.9983123612139156,3859.986328125,-7606.27978515625,20.899999618530277,12.194717407226562,0,0.0,0.0,0.0,0.0,3.803680391952774,0.0,0.0,0.0,0.0,0.0,0.0,0.0,11,0.9936639526276831,38.99977213541667,-76.1046630859375,0.035892339,9.655039191,0.1507478238,-0.0646062102,9.655039191,0.0215354034,-0.0525342432625,0.13805510438750002,0.105068486525,0.048869063500000004,0.0134389924625,0.012217265875000001,2.26142,-0.81026,-1.8734,2.31652,0.77372,-0.38338,-0.014356935599999999,9.655039191,0.0861416136,-0.0018325898812499991,0.075747048425,0.0586428762,2.28897,-0.01827000000000001,-1.12839,-9.4144,-0.94144,-112.50208,33.685
34121,4338330,0,4,1338,11,-50,115,70,3885,-1379,-3244,-7,1343,0,31,14,3,3949,1330,-652,-96,0,-3904,34.85,0.9892030594621268,32.51,0.9984801381692572,3859.986328125,-7606.27978515625,20.899999618530277,12.194717407226562,0,0.0,0.0,0.0,0.0,3.803680391952774,0.0,0.0,0.0,0.0,0.0,0.0,0.0,11,0.993841598815692,38.99977213541667,-76.1046630859375,0.0287138712,9.6047899164,0.07896314580000001,-0.050249274600000005,9.6406822554,0.0,-0.061086329375000005,0.14049855756250001,0.085520861125,0.0378735242125,0.017104172225000002,0.0036651797625,2.2533,-0.79982,-1.88152,2.29042,0.7714,-0.37816,-0.010767701700000002,9.6227360859,0.039481572900000005,-0.011606402581250001,0.07880136489375,0.04459302044375,2.27186,-0.01421,-1.12984,-2.82432,0.0,-114.85568,33.68
34122,4338480,0,8,1340,14,-47,107,72,3918,-1430,-3254,-6,1346,-2,32,2,-9,3949,1330,-652,-176,-32,-3808,34.87,0.9887984209227731,32.53,0.9981051073279052,3859.986328125,-7606.27978515625,20.899999618530277,12.194717407226562,0,0.0,0.0,0.0,0.0,3.803680391952774,0.0,0.0,0.0,0.0,0.0,0.0,0.0,11,0.9934517641253392,38.99977213541667,-76.1046630859375,0.0574277424,9.619146852,0.10049854920000001,-0.0430708068,9.6622176588,-0.0143569356,-0.0574211496125,0.13072474486250002,0.0879643143,0.0390952508,0.002443453175,-0.0109955392875,2.27244,-0.8294,-1.88732,2.29042,0.7714,-0.37816,0.007178467800000001,9.6406822554,0.04307080680000001,-0.009162949406249999,0.06658409901875001,0.03848438750625,2.2814300000000003,-0.029000000000000026,-1.13274,-5.17792,-0.94144,-112.03136,33.7
34123,4338631,0,11,1345,12,-49,112,79,3905,-1396,-3252,-5,1343,2,31,1,2,3974,1325,-665,-192,-112,-3856,34.87,0.9891734517641252,32.5,0.9984209227732544,3859.986328125,-7606.27978515625,20.899999618530277,12.194717407226562,0,0.0,0.0,0.0,0.0,3.803680391952774,0.0,0.0,0.0,0.0,0.0,0.0,0.0,11,0.9937971872686898,38.99977213541667,-76.1046630859375,0.07896314580000001,9.655039191,0.0861416136,-0.035892339,9.6406822554,0.0143569356,-0.059864602787500006,0.13683337780000002,0.09651640041250001,0.0378735242125,0.0012217265875,0.002443453175,2.2649,-0.80968,-1.88616,2.30492,0.7685,-0.3857,0.021535403400000003,9.6478607232,0.0502492746,-0.010995539287500002,0.06902755219375001,0.049479926793750004,2.28491,-0.020589999999999997,-1.13593,-5.64864,-3.29504,-113.44352,33.685
34124,4338781,0,6,1342,14,-59,121,76,3905,-1396,-3252,-5,1346,0,36,16,5,3981,1304,-655,-144,-48,-3888,34.87,0.9890155440414508,32.51,0.9984307920059216,3859.986328125,-7606.27978515625,20.899999618530277,12.194717407226562,0,0.0,0.0,0.0,0.0,3.803680391952774,0.0,0.0,0.0,0.0,0.0,0.0,0.0,11,0.9937231680236862,38.99977213541667,-76.1046630859375,0.0430708068,9.6335037876,0.10049854920000001,-0.035892339,9.6622176588,0.0,-0.0720818686625,0.1478289170875,0.09285122065000001,0.04398215715,0.0195476254,0.0061086329375000005,2.2649,-0.80968,-1.88616,2.30898,0.75632,-0.3799,0.003589233899999999,9.6478607232,0.050249274600000005,-0.014049855756250004,0.08368827124375,0.049479926793750004,2.28694,-0.02667999999999998,-1.13303,-4.23648,-1.41216,-114.38496,33.69
34125,4338932,0,5,1341,19,-51,106,81,3915,-1415,-3236,-12,1348,-2,31,8,15,3971,1336,-671,-176,-96,-3920,34.88,0.9889464594127808,32.52,0.9981840611892424,3859.986328125,-7606.27978515625,20.899999618530277,12.194717407226562,0,0.0,0.0,0.0,0.0,3.803680391952774,0.0,0.0,0.0,0.0,0.0,0.0,0.0,11,0.9935652603010117,38.99977213541667,-76.1046630859375,0.035892339,9.626325319800001,0.1363908882,-0.0861416136,9.6765745944,-0.0143569356,-0.062308055962500004,0.129503018275,0.09895985358750001,0.0378735242125,0.0097738127,0.0183258988125,2.2707,-0.8207,-1.87688,2.3031800000000002,0.77488,-0.38918,-0.0251246373,9.6514499571,0.061016976300000005,-0.012217265875000001,0.0696384154875,0.058642876200000006,2.2869400000000004,-0.022909999999999986,-1.13303,-5.17792,-2.82432,-115.3264,33.7
34126,4339082,0,6,1339,18,-41,104,64,3895,-1418,-3241,-12,1350,2,31,17,-3,3971,1336,-671,-192,-16,-3840,34.88,0.9888872440167776,32.52,0.9982432765852456,3859.986328125,-7606.27978515625,20.899999618530277,12.194717407226562,0,0.0,0.0,0.0,0.0,3.803680391952774,0.0,0.0,0.0,0.0,0.0,0.0,0.0,11,0.9935652603010117,38.99977213541667,-76.1046630859375,0.0430708068,9.6119683842,0.1292124204,-0.0861416136,9.69093153,0.0143569356,-0.0500907900875,0.1270595651,0.0781905016,0.0378735242125,0.0207693519875,-0.0036651797625,2.2591,-0.8224400000000001,-1.87978,2.3031800000000002,0.77488,-0.38918,-0.0215354034,9.6514499571,0.071784678,-0.0061086329375000005,0.07391445854374999,0.03726266091875,2.28114,-0.023780000000000023,-1.13448,-5.64864,-0.47072,-112.9728,33.7
34127,4339232,0,11,1340,19,-51,110,79,3892,-1422,-3270,-3,1350,0,35,17,0,3981,1320,-647,-176,-32,-3952,34.87,0.989025413274118,32.5,0.9985097458672588,3859.986328125,-7606.27978515625,20.899999618530277,12.194717407226562,0,0.0,0.0,0.0,0.0,3.803680391952774,0.0,0.0,0.0,0.0,0.0,0.0,0.0,11,0.9937675795706884,38.99977213541667,-76.1046630859375,0.07896314580000001,9.619146852,0.1363908882,-0.0215354034,9.69093153,0.0,-0.062308055962500004,0.13438992462500002,0.09651640041250001,0.0427604305625,0.0207693519875,0.0,2.25736,-0.82476,-1.8966,2.30898,0.7656000000000001,-0.37526,0.028713871200000005,9.655039191,0.0681954441,-0.009773812700000002,0.07757963830625,0.048258200206250004,2.28317,-0.029579999999999995,-1.13593,-5.17792,-0.94144,-116.26784,33.685
34128,4339383,0,10,1342,14,-60,116,80,3909,-1420,-3243,-3,1344,2,28,14,8,3970,1321,-663,-224,32,-3856,34.88,0.9889267209474464,32.52,0.9982531458179128,3859.986328125,-7606.27978515625,20.899999618530277,12.194717407226562,0,0.0,0.0,0.0,0.0,3.803680391952774,0.0,0.0,0.0,0.0,0.0,0.0,0.0,11,0.9935899333826796,38.99977213541667,-76.1046630859375,0.071784678,9.6335037876,0.10049854920000001,-0.0215354034,9.6478607232,0.0143569356,-0.07330359525,0.14172028415000001,0.09773812700000001,0.034208344450000004,0.017104172225000002,0.0097738127,2.26722,-0.8236,-1.88094,2.3026,0.76618,-0.38454,0.025124637300000002,9.640682255400002,0.0574277424,-0.0195476254,0.0794122281875,0.05375596985,2.28491,-0.028710000000000013,-1.13274,-6.59008,0.94144,-113.44352,33.7
34129,4339533,0,7,1341,16,-55,114,78,3909,-1420,-3243,-11,1353,-2,35,5,2,3987,1345,-658,-224,-16,-3872,34.88,0.9887786824574388,32.5,0.9984702689365902,3859.986328125,-7606.27978515625,20.899999618530277,12.194717407226562,0,0.0,0.0,0.0,0.0,3.803680391952774,0.0,0.0,0.0,0.0,0.0,0.0,0.0,11,0.9936244756970145,38.99977213541667,-76.1046630859375,0.050249274600000005,9.626325319800001,0.1148554848,-0.07896314580000001,9.7124669334,-0.0143569356,-0.06719496231250001,0.13927683097500002,0.09529467382500001,0.0427604305625,0.0061086329375000005,0.002443453175,2.26722,-0.8236,-1.88094,2.31246,0.7801,-0.38164,-0.014356935600000002,9.6693961266,0.050249274600000005,-0.012217265875000004,0.07269273195625,0.048869063500000004,2.28984,-0.02174999999999999,-1.13129,-6.59008,-0.47072,-113.91424,33.69
34130,4339684,0,5,1344,17,-32,124,77,3914,-1419,-3284,-17,1351,1,37,16,-3,3987,1345,-658,-144,-112,-3888,34.87,0.9888082901554404,32.5,0.9982037996545768,3859.986328125,-7606.27978515625,20.899999618530277,12.194717407226562,0,0.0,0.0,0.0,0.0,3.803680391952774,0.0,0.0,0.0,0.0,0.0,0.0,0.0,11,0.9935060449050086,38.99977213541667,-76.1046630859375,0.035892339,9.6478607232,0.12203395260000001,-0.12203395260000001,9.6981099978,0.0071784678,-0.0390952508,0.15149409685,0.09407294723750001,0.0452038837375,0.0195476254,-0.0036651797625,2.27012,-0.82302,-1.90472,2.31246,0.7801,-0.38164,-0.0430708068,9.6729853605,0.0646062102,0.0030543164687499985,0.085520861125,0.045203883737500006,2.29129,-0.02145999999999998,-1.14318,-4.23648,-3.29504,-114.38496,33.685
34131,4339834,0,8,1340,17,-42,114,67,3911,-1420,-3266,-8,1345,2,31,10,-7,3977,1323,-660,-176,-32,-3856,34.88,0.9889958055761164,32.49,0.998450530471256,3859.986328125,-7606.27978515625,20.899999618530277,12.194717407226562,0,0.0,0.0,0.0,0.0,3.803680391952774,0.0,0.0,0.0,0.0,0.0,0.0,0.0,11,0.9937231680236862,38.99977213541667,-76.1046630859375,0.0574277424,9.619146852,0.12203395260000001,-0.0574277424,9.655039191,0.0143569356,-0.051312516675,0.13927683097500002,0.0818556813625,0.0378735242125,0.012217265875000001,-0.008552086112500001,2.26838,-0.8236,-1.89428,2.30666,0.76734,-0.38280000000000003,0.0,9.6370930215,0.0681954441,-0.00671949623125,0.075747048425,0.036651797625,2.2875199999999998,-0.02812999999999999,-1.1385399999999999,-5.17792,-0.94144,-113.44352,33.685
34132,4339984,0,6,1345,17,-48,120,74,3897,-1421,-3269,-2,1347,5,23,10,1,3950,1307,-658,-288,-16,-3904,34.86,0.989094497902788,32.49,0.9984307920059216,3859.986328125,-7606.27978515625,20.899999618530277,12.194717407226562,0,0.0,0.0,0.0,0.0,3.803680391952774,0.0,0.0,0.0,0.0,0.0,0.0,0.0,11,0.9937626449543548,38.99977213541667,-76.1046630859375,0.0430708068,9.655039191,0.12203395260000001,-0.0143569356,9.6693961266,0.035892339,-0.0586428762,0.1466071905,0.090407767475,0.0280997115125,0.012217265875000001,0.0012217265875,2.26026,-0.82418,-1.89602,2.291,0.75806,-0.38164,0.014356935599999999,9.6622176588,0.07896314580000001,-0.01527158234375,0.0794122281875,0.04581474703125,2.27563,-0.033060000000000034,-1.13883,-8.47296,-0.47072,-114.85568,33.675
34133,4340135,0,6,1346,20,-50,106,85,3897,-1421,-3269,-8,1343,-1,25,7,0,3956,1312,-631,-288,-16,-3824,34.87,0.9890155440414508,32.5,0.9983617073772514,3859.986328125,-7606.27978515625,20.899999618530277,12.194717407226562,0,0.0,0.0,0.0,0.0,3.803680391952774,0.0,0.0,0.0,0.0,0.0,0.0,0.0,11,0.9936886257093511,38.99977213541667,-76.1046630859375,0.0430708068,9.6622176588,0.143569356,-0.0574277424,9.6406822554,-0.0071784678,-0.061086329375000005,0.129503018275,0.1038467599375,0.030543164687500002,0.008552086112500001,0.0,2.26026,-0.82418,-1.89602,2.29448,0.76096,-0.36598,-0.007178467800000001,9.651449957099999,0.0681954441,-0.015271582343750001,0.06902755219375,0.05192337996875,2.2773700000000003,-0.03161000000000003,-1.131,-8.47296,-0.47072,-112.50208,33.685
34134,4340285,0,9,1338,16,-56,116,78,3890,-1406,-3243,-15,1343,-2,25,12,-5,3956,1312,-631,-208,-16,-3872,34.87,0.9887984209227731,32.49,0.9985393535652602,3859.986328125,-7606.27978515625,21.200000762939453,12.194717407226562,0,0.0,0.0,0.0,0.0,3.803680391952774,0.0,0.0,0.0,0.0,0.0,0.0,0.0,11,0.9936688872440167,38.99977213541667,-76.1046630859375,0.0646062102,9.6047899164,0.1148554848,-0.107677017,9.6406822554,-0.0143569356,-0.06841668890000001,0.14172028415000001,0.09529467382500001,0.030543164687500002,0.01466071905,-0.0061086329375000005,2.2562,-0.81548,-1.88094,2.29448,0.76096,-0.36598,-0.0215354034,9.6227360859,0.050249274600000005,-0.018936762106250005,0.0781905016,0.044593020443750006,2.27534,-0.027260000000000006,-1.1234600000000001,-6.11936,-0.47072,-113.91424,33.68
34135,4340435,0,28,1348,-69,-51,126,70,3895,-1425,-3265,-17,1347,62,39,20,-4,3967,1323,-632,-288,-48,-3872,34.88,0.9890352825067852,32.47,0.998450530471256,3859.986328125,-7606.27978515625,21.200000762939453,12.194717407226562,0,0.0,0.0,0.0,0.0,3.803680391952774,0.0,0.0,0.0,0.0,0.0,0.0,0.0,11,0.9937429064890206,38.99977213541667,-76.1046630859375,0.20099709840000002,9.6765745944,-0.4953142782,-0.12203395260000001,9.6693961266,0.4450650036,-0.062308055962500004,0.153937550025,0.085520861125,0.047647336912500005,0.024434531750000002,-0.00488690635,2.2591,-0.8265,-1.8937,2.30086,0.76734,-0.36656,0.039481572900000005,9.6729853605,-0.025124637300000002,-0.007330359525,0.08918604088750001,0.0403169773875,2.27998,-0.029579999999999995,-1.1301299999999999,-8.47296,-1.41216,-113.91424,33.675
34136,4340586,0,8,1344,10,-48,103,73,3900,-1411,-3283,-2,1342,6,38,-6,1,3986,1310,-649,-272,-16,-3824,34.88,0.9888773747841104,32.5,0.9982630150505798,3859.986328125,-7606.27978515625,21.200000762939453,12.194717407226562,0,0.0,0.0,0.0,0.0,3.803680391952774,0.0,0.0,0.0,0.0,0.0,0.0,0.0,11,0.9935701949173451,38.99977213541667,-76.1046630859375,0.0574277424,9.6478607232,0.071784678,-0.0143569356,9.6335037876,0.0430708068,-0.0586428762,0.1258378385125,0.0891860408875,0.046425610325000005,-0.007330359525,0.0012217265875,2.262,-0.81838,-1.90414,2.31188,0.7598,-0.37642,0.0215354034,9.640682255400002,0.0574277424,-0.006108632937499997,0.05925373949375,0.0452038837375,2.28694,-0.029289999999999983,-1.14028,-8.00224,-0.47072,-112.50208,33.69
34137,4340736,0,13,1343,15,-45,106,81,3900,-1411,-3283,-8,1345,3,37,-1,7,3986,1310,-649,-176,-64,-3840,34.86,0.9889365901801136,32.49,0.9984900074019244,3859.986328125,-7606.27978515625,21.200000762939453,12.194717407226562,0,0.0,0.0,0.0,0.0,3.803680391952774,0.0,0.0,0.0,0.0,0.0,0.0,0.0,11,0.993713298791019,38.99977213541667,-76.1046630859375,0.0933200814,9.6406822554,0.107677017,-0.0574277424,9.655039191,0.0215354034,-0.0549776964375,0.129503018275,0.09895985358750001,0.0452038837375,-0.0012217265875,0.008552086112500001,2.262,-0.81838,-1.90414,2.31188,0.7598,-0.37642,0.0179461695,9.6478607232,0.0646062102,-0.004886906350000001,0.06414064584375,0.05375596985,2.28694,-0.029289999999999983,-1.14028,-5.17792,-1.88288,-112.9728,33.675
34138,4340887,0,8,1345,16,-41,123,84,3874,-1409,-3283,-5,1351,5,38,13,1,3958,1327,-645,-160,-32,-3888,34.86,0.9889365901801136,32.48,0.9984801381692572,3859.986328125,-7606.27978515625,21.200000762939453,12.194717407226562,0,0.0,0.0,0.0,0.0,3.803680391952774,0.0,0.0,0.0,0.0,0.0,0.0,0.0,11,0.9937083641746853,38.99977213541667,-76.1046630859375,0.0574277424,9.655039191,0.1148554848,-0.035892339,9.6981099978,0.035892339,-0.0500907900875,0.1502723702625,0.10262503335,0.046425610325000005,0.0158824456375,0.0012217265875,2.24692,-0.8172200000000001,-1.90414,2.29564,0.76966,-0.3741,0.0107677017,9.6765745944,0.0753739119,-0.0018325898812499991,0.08307740795,0.05192337996875,2.27128,-0.023780000000000023,-1.13912,-4.7072,-0.94144,-114.38496,33.67
34139,4341037,0,5,1335,13,-60,108,70,3920,-1416,-3268,-3,1344,-11,30,13,-6,3968,1315,-649,-208,-32,-3808,34.86,0.9890451517394524,32.48,0.998647915124599,3859.986328125,-7606.27978515625,21.200000762939453,12.194717407226562,0,0.0,0.0,0.0,0.0,3.803680391952774,0.0,0.0,0.0,0.0,0.0,0.0,0.0,11,0.9938465334320257,38.99977213541667,-76.1046630859375,0.035892339,9.583254513,0.0933200814,-0.0215354034,9.6478607232,-0.07896314580000001,-0.07330359525,0.13194647145000002,0.085520861125,0.036651797625,0.0158824456375,-0.007330359525,2.2736,-0.82128,-1.89544,2.30144,0.7627,-0.37642,0.007178467800000001,9.6155576181,0.007178467799999998,-0.0183258988125,0.07391445854375,0.0390952508,2.2875199999999998,-0.029289999999999983,-1.13593,-6.11936,-0.94144,-112.03136,33.67
34140,4341187,0,-582,16035,-65,-216,-868,71,3934,-1422,-3220,-690,15727,-226,-178,-1094,-54,3953,1349,-670,-3424,64,-3584,34.86,0.9890056748087837,32.49,0.9986084381939304,3859.986328125,-7606.27978515625,21.200000762939453,12.194717407226562,0,0.0,0.0,0.0,0.0,3.803680391952774,0.0,0.0,0.0,0.0,0.0,0.0,0.0,11,0.993807056501357,38.99977213541667,-76.1046630859375,-4.1778682596,115.106731173,-0.466600407,-4.9531427820000005,112.8957630906,-1.6223337228,-0.26389294290000004,-1.06045867795,0.0867425877125,-0.217467332575,-1.336568886725,-0.06597323572500001,2.28172,-0.82476,-1.8676,2.2927400000000002,0.78242,-0.3886,-4.5655055208,114.0012471318,-1.0444670649,-0.24068013773750002,-1.1985137823375,0.010384675993749995,2.28723,-0.021170000000000022,-1.1280999999999999,-100.73408,1.88288,-105.44128,33.675
34141,4341338,0,-229,16212,-77,-39,239,25,3934,-1422,-3220,-345,15935,40,69,32,-68,3953,1349,-670,-3584,-16,-4000,34.87,0.9889168517147792,32.5,0.9979866765358992,3859.986328125,-7606.27978515625,21.200000762939453,12.194717407226562,0,0.0,0.0,0.0,0.0,3.803680391952774,0.0,0.0,0.0,0.0,0.0,0.0,0.0,11,0.9934517641253392,38.99977213541667,-76.1046630859375,-1.6438691262,116.37731997360001,-0.5527420206,-2.4765713910000002,114.388884393,0.287138712,-0.047647336912500005,0.2919926544125,0.030543164687500002,0.0842991345375,0.0390952508,-0.08307740795,2.28172,-0.82476,-1.8676,2.2927400000000002,0.78242,-0.3886,-2.0602202586000002,115.3831021833,-0.1328016543,0.018325898812499998,0.16554395260625,-0.02626712163125,2.28723,-0.021170000000000022,-1.1280999999999999,-105.44128,-0.47072,-117.68,33.685
34142,4341488,0,47,16092,-91,-35,1283,516,3921,-1429,-3226,-84,15812,-64,63,1189,440,3969,1280,-636,-3472,-32,-3808,34.85,0.9881273131014064,32.49,0.9976313841598816,3859.986328125,-7606.27978515625,21.200000762939453,12.194717407226562,0,0.0,0.0,0.0,0.0,3.803680391952774,0.0,0.0,0.0,0.0,0.0,0.0,0.0,11,0.992879348630644,38.99977213541667,-76.1046630859375,0.3373879866,115.5159038376,-0.6532405698,-0.6029912952,113.5059328536,-0.4594219392,-0.0427604305625,1.5674752117625002,0.63041091915,0.0769687750125,1.4526329125375002,0.5375596985000001,2.27418,-0.82882,-1.87108,2.30202,0.7424,-0.36888,-0.13280165430000002,114.5109183456,-0.5563312545,0.017104172225000002,1.51005406215,0.583985308825,2.2881,-0.043210000000000026,-1.11998,-102.14624,-0.94144,-112.03136,33.67
34143,4341639,0,139,15825,-27,5,2686,853,3853,-1456,-3189,-36,15511,182,121,2623,800,3925,1284,-593,-3488,-16,-3760,34.86,0.9871601283000246,32.49,0.9964075993091536,3859.986328125,-7606.27978515625,21.200000762939453,12.194717407226562,0,0.0,0.0,0.0,0.0,3.803680391952774,0.0,0.0,0.0,0.0,0.0,0.0,0.0,11,0.991783863804589,38.99977213541667,-76.1046630859375,0.9978070242,113.59925293500001,-0.1938186306,-0.2584248408,111.3452140458,1.3064811396,0.0061086329375000005,3.281557614025,1.0421327791375001,0.1478289170875,3.2045888390125,0.9773812700000001,2.23474,-0.84448,-1.84962,2.2765,0.74472,-0.34394,0.36969109170000003,112.47223349040001,0.5563312545,0.0769687750125,3.2430732265187503,1.0097570245687502,2.25562,-0.04987999999999998,-1.09678,-102.61696,-0.47072,-110.6192,33.675
34144,4341789,0,409,15564,-55,272,4666,658,3719,-1477,-3096,273,15268,92,392,4611,607,3812,1237,-486,-3392,-96,-3808,34.84,0.985946212681964,32.47,0.9955094991364422,3859.986328125,-7606.27978515625,21.200000762939453,12.194717407226562,0,0.0,0.0,0.0,0.0,3.803680391952774,0.0,0.0,0.0,0.0,0.0,0.0,0.0,11,0.9907278559092031,38.99977213541667,-76.1046630859375,2.9359933302,111.7256728392,-0.394815729,1.9597217094000001,109.6008463704,0.6604190376,0.3323096318,5.700576257275,0.803896094575,0.47891682230000004,5.633381294962501,0.7415880386125,2.15702,-0.85666,-1.79568,2.21096,0.71746,-0.28188,2.4478575198000003,110.6632596048,0.1328016543,0.40561322705,5.66697877611875,0.77274206659375,2.18399,-0.0696,-1.03878,-99.79264,-2.82432,-112.03136,33.655
34145,4341939,0,345,15163,-17,259,7049,-174,3719,-1477,-3096,214,14905,6,391,7003,-220,3812,1237,-486,-3344,-48,-3936,34.83,0.984416481618554,32.46,0.9936738218603504,3859.986328125,-7606.27978515625,21.200000762939453,12.194717407226562,0,0.0,0.0,0.0,0.0,3.803680391952774,0.0,0.0,0.0,0.0,0.0,0.0,0.0,11,0.9890451517394522,38.99977213541667,-76.1046630859375,2.4765713910000002,108.8471072514,-0.12203395260000001,1.5361921092000002,106.995062559,0.0430708068,0.31642718616250004,8.6119507152875,-0.212580426225,0.4776950957125,8.555751292262501,-0.26877984925000004,2.15702,-0.85666,-1.79568,2.21096,0.71746,-0.28188,2.0063817501,107.9210849052,-0.039481572900000005,0.3970611409375,8.583851003775,-0.24068013773750002,2.18399,-0.0696,-1.03878,-98.38048,-1.41216,-115.79712,33.644999999999996
34146,4342090,0,98,14788,-94,-404,10408,-354,3593,-1478,-2937,-9,14555,-142,-238,10282,-358,3652,1241,-363,-3280,-112,-3824,34.82,0.9826696274364668,32.46,0.992104613866272,3859.986328125,-7606.27978515625,21.200000762939453,12.194717407226562,0,0.0,0.0,0.0,0.0,3.803680391952774,0.0,0.0,0.0,0.0,0.0,0.0,0.0,11,0.9873871206513694,38.99977213541667,-76.1046630859375,0.7034898444000001,106.15518182640001,-0.6747759732,-0.0646062102,104.48259882900001,-1.0193424276,-0.49357754135000004,12.7157303227,-0.432491211975,-0.290770927825,12.561792772675,-0.437378118325,2.08394,-0.85724,-1.70346,2.11816,0.71978,-0.21054,0.3194418171,105.31889032770002,-0.8470592004,-0.3921742345875,12.638761547687501,-0.43493466515,2.10105,-0.06873000000000001,-0.957,-96.4976,-3.29504,-112.50208,33.64
34147,4342240,0,235,9400,34,66,10769,536,3304,-1473,-2806,30,9097,2054,405,10735,544,3282,1310,-189,-2000,-160,-3728,34.82,0.9809326424870466,32.45,0.9904169750801876,3859.986328125,-7606.27978515625,21.200000762939453,12.194717407226562,0,0.0,0.0,0.0,0.0,3.803680391952774,0.0,0.0,0.0,0.0,0.0,0.0,0.0,11,0.9856748087836171,38.99977213541667,-76.1046630859375,1.6869399330000001,67.47759732,0.24406790520000002,0.215354034,65.3025215766,14.7445728612,0.080633954775,13.1567736207875,0.6548454509,0.4947992679375,13.1152349168125,0.6646192636,1.91632,-0.85434,-1.62748,1.90356,0.7598,-0.10962,0.9511469835,66.39005944830001,7.4943203832,0.28771661135625,13.1360042688,0.65973235725,1.90994,-0.04726999999999998,-0.86855,-58.84,-4.7072,-109.67776,33.635000000000005
34148,4342391,0,-370,4862,-2045,6010,22433,3986,2736,-1503,-3138,-426,4974,-2325,6030,22360,4197,3282,1310,-189,-1136,448,-4448,34.81,0.9759092030594622,32.44,0.9848211201579076,3859.986328125,-7606.27978515625,21.200000762939453,12.194717407226562,0,0.0,0.0,0.0,0.0,3.803680391952774,0.0,0.0,0.0,0.0,0.0,0.0,0.0,11,0.9803651616086848,38.99977213541667,-76.1046630859375,-2.6560330860000003,34.9017104436,-14.679966651,-3.0580272828,35.7056988372,-16.689937635,7.342576790875,27.406992537387502,4.869802177775,7.367011322625,27.3178064965,5.1275864877375,1.58688,-0.87174,-1.82004,1.90356,0.7598,-0.10962,-2.8570301844,35.3037046404,-15.684952143,7.35479405675,27.362399516943753,4.99869433275625,1.74522,-0.055969999999999964,-0.9648300000000001,-33.42112,13.18016,-130.86016,33.625
34149,4342541,0,-1997,4107,-6075,2745,19275,6553,2736,-1503,-3138,-2509,3853,-5973,3154,19714,6674,2710,1279,-705,-848,464,-5488,34.79,0.9650037009622502,32.42,0.974418948926721,3859.986328125,-7606.27978515625,21.200000762939453,12.194717407226562,0,0.0,0.0,0.0,0.0,3.803680391952774,0.0,0.0,0.0,0.0,0.0,0.0,0.0,11,0.9697113249444855,38.99977213541667,-76.1046630859375,-14.3354001966,29.4819672546,-43.609191885,-18.0107757102,27.6586364334,-42.8769881694,3.3536394826875,23.5487799740625,8.0059743278875,3.853325656975,24.085117945975,8.153803244975,1.58688,-0.87174,-1.82004,1.5718,0.74182,-0.4089,-16.1730879534,28.570301844,-43.2430900272,3.6034825698312503,23.81694896001875,8.079888786431251,1.5793400000000002,-0.06495999999999996,-1.11447,-24.94816,13.65088,-161.45696,33.605000000000004
34150,4342691,0,1579,3055,-6147,-4848,-113,11713,2748,-1244,-4279,1919,3222,-6542,-4347,1114,11521,2854,1555,-1742,-624,-560,-5552,34.79,0.9688428324697754,32.41,0.9783271650629164,3859.986328125,-7606.27978515625,21.200000762939453,12.194717407226562,0,0.0,0.0,0.0,0.0,3.803680391952774,0.0,0.0,0.0,0.0,0.0,0.0,0.0,11,0.9735849987663459,38.99977213541667,-76.1046630859375,11.3348006562,21.930219129,-44.1260415666,13.7754797082,23.1290232516,-46.9615363476,-5.9229304962,-0.13805510438750002,14.3100835193875,-5.3108454758625,1.3610034184750002,14.0755120145875,1.59384,-0.72152,-2.48182,1.65532,0.9019,-1.01036,12.5551401822,22.5296211903,-45.543788957100006,-5.61688798603125,0.6114741570437501,14.1927977669875,1.62458,0.09018999999999999,-1.74609,-18.35808,-16.4752,-163.33984,33.599999999999994
34151,4342842,0,5680,3329,-16967,-1204,32763,9921,2262,-1069,-4126,8408,2303,-11609,-681,32763,10370,2557,1747,-1753,-208,-1056,-7600,34.76,0.9540587219343696,32.37,0.9554502837404392,3859.986328125,-7606.27978515625,21.200000762939453,12.194717407226562,0,0.0,0.0,0.0,0.0,3.803680391952774,0.0,0.0,0.0,0.0,0.0,0.0,0.0,11,0.9547545028374044,38.99977213541667,-76.1046630859375,40.773697104,23.8971193062,-121.79706316260001,60.3565572624,16.5320113434,-83.3348326902,-1.47095881135,40.027428186262505,12.1207494745875,-0.8319958060875,40.027428186262505,12.669304712375,1.31196,-0.62002,-2.39308,1.48306,1.01326,-1.01674,50.565127183200005,20.2145653248,-102.56594792640001,-1.15147730871875,40.027428186262505,12.39502709348125,1.39751,0.19662000000000002,-1.70491,-6.11936,-31.067520000000002,-223.592,33.565
34152,4342992,0,-8243,949,-5955,-1651,32667,9546,4201,-1257,-3624,-7890,583,-8993,-909,32742,9864,2557,1747,-1753,96,1824,-4464,34.72,0.9568319763138416,32.33,0.9649247471009128,3859.9814453125,-7606.27783203125,22.799999237060547,12.194717407226562,0,0.0,0.0,0.0,0.0,3.803680391952774,0.0,0.0,0.0,0.0,0.0,0.0,0.0,11,0.9608783617073773,38.999690755208334,-76.10463053385416,-59.1721100754,6.8123659422000005,-42.747775749,-56.638110942000004,4.1850467274000005,-64.5559609254,-2.0170705959625,39.910142433862504,11.662602004275001,-1.1105494680375,40.001771927925,12.0511110591,2.43658,-0.72906,-2.1019200000000002,1.48306,1.01326,-1.01674,-57.905110508700005,5.4987063348000005,-53.6518683372,-1.5638100320000001,39.95595718089375,11.856856531687502,1.9598200000000001,0.1421,-1.55933,2.82432,53.66208,-131.33088,33.525
34153,4343143,0,-4323,540,-5435,14010,32763,2500,4201,-1257,-3624,-4484,636,-5532,14471,32763,3344,4081,1328,-553,-80,1072,-5120,34.68,0.9611547002220576,32.3,0.9702837404391808,3859.9814453125,-7606.27783203125,22.799999237060547,12.194717407226562,0,0.0,0.0,0.0,0.0,3.803680391952774,0.0,0.0,0.0,0.0,0.0,0.0,0.0,11,0.9657192203306192,38.999690755208334,-76.10463053385416,-31.0325162994,3.876372612,-39.014972493,-32.1882496152,4.5655055208,-39.7112838696,17.116389490875,40.027428186262505,3.05431646875,17.6796054477125,40.027428186262505,4.0854537086,2.43658,-0.72906,-2.1019200000000002,2.36698,0.77024,-0.32074,-31.6103829573,4.2209390664,-39.3631281813,17.39799746929375,40.027428186262505,3.569885088675,2.40178,0.020589999999999997,-1.2113300000000002,-2.3536,31.538240000000002,-150.6304,33.489999999999995
34154,4343293,0,-5935,-256,1619,4552,13652,-3071,2900,-1476,-3861,-6044,-321,1754,4637,13517,-2844,3716,1374,-1461,208,1424,-3040,34.64,0.9722181100419444,32.25,0.9816629657044164,3859.9814453125,-7606.27783203125,22.799999237060547,12.194717407226562,0,0.0,0.0,0.0,0.0,3.803680391952774,0.0,0.0,0.0,0.0,0.0,0.0,0.0,11,0.9769405378731804,38.999690755208334,-76.10463053385416,-42.604206393,-1.8376877568,11.6219393682,-43.386659383200005,-2.3042881638,12.5910325212,5.561299426300001,16.67901137255,-3.7519223502125003,5.6651461862375,16.514078283237502,-3.47459041485,1.682,-0.85608,-2.23938,2.15528,0.79692,-0.84738,-42.9954328881,-2.0709879603,12.106485944700001,5.61322280626875,16.59654482789375,-3.61325638253125,1.91864,-0.029579999999999995,-1.54338,6.11936,41.89408,-89.4368,33.445
34155,4343443,0,-2254,-291,-2503,-4491,-27194,7416,4073,-1206,-4013,-2283,-292,-2503,-4415,-27242,6964,3423,1471,-1737,144,368,-4336,34.6,0.9586676535899332,32.23,0.967944732297064,3859.9814453125,-7606.27783203125,22.799999237060547,12.194717407226562,0,0.0,0.0,0.0,0.0,3.803680391952774,0.0,0.0,0.0,0.0,0.0,0.0,0.0,11,0.9633061929434986,38.999690755208334,-76.10463053385416,-16.1802664212,-2.0889341298,-17.9677049034,-16.3884419874,-2.0961125976,-17.9677049034,-5.4867741044625005,-33.223632820475004,9.0603243729,-5.3939228838125,-33.282275696675,8.50810395535,2.36234,-0.69948,-2.32754,1.98534,0.85318,-1.00746,-16.2843542043,-2.0925233637,-17.9677049034,-5.440348494137501,-33.252954258575,8.784214164125,2.17384,0.07685000000000003,-1.6675,4.23648,10.82656,-127.56512000000001,33.415
34156,4343594,0,776,-102,2092,-7446,-7612,862,2404,-1359,-3705,667,-79,2157,-7327,-7767,504,3423,1471,-1737,96,-272,-3264,34.55,0.9610066617320504,32.19,0.9697310634098198,3859.9814453125,-7606.27783203125,22.799999237060547,12.194717407226562,0,0.0,0.0,0.0,0.0,3.803680391952774,0.0,0.0,0.0,0.0,0.0,0.0,0.0,11,0.9653688625709351,38.999690755208334,-76.10463053385416,5.5704910128,-0.7322037156000001,15.0173546376,4.7880380226,-0.5670989562000001,15.4839550446,-9.096976170525,-9.29978278405,1.053128318425,-8.9515907066125,-9.4891504051125,0.6157502001,1.39432,-0.78822,-2.1489,1.98534,0.85318,-1.00746,5.1792645177,-0.6496513359,15.250654841100001,-9.02428343856875,-9.39446659458125,0.8344392592625001,1.6898300000000002,0.03248000000000001,-1.57818,2.82432,-8.00224,-96.02688,33.37
34157,4343744,0,634,-246,2782,979,6046,-1779,2404,-1359,-3705,651,-264,2841,1034,5841,-1773,2489,1387,-757,144,-224,-3136,34.51,0.95673328398717,32.16,0.9656846780162842,3859.9814453125,-7606.27783203125,22.799999237060547,12.194717407226562,0,0.0,0.0,0.0,0.0,3.803680391952774,0.0,0.0,0.0,0.0,0.0,0.0,0.0,11,0.961208981001727,38.999690755208334,-76.10463053385416,4.5511485852,-1.7659030788,19.9704974196,4.6731825378,-1.8951154992,20.3940270198,1.1960703291625001,7.386558948025001,-2.1734515991625,1.263265291475,7.1361049975875,-2.1661212396375,1.39432,-0.78822,-2.1489,1.44362,0.80446,-0.43906,4.6121655614999995,-1.830509289,20.1822622197,1.22966781031875,7.26133197280625,-2.1697864194000003,1.4189699999999998,0.00811999999999996,-1.29398,4.23648,-6.59008,-92.26112,33.334999999999994
34158,4343894,0,-316,-241,392,4126,15621,-4264,2416,-1405,-3330,-274,-223,344,4244,15531,-4083,2671,1338,-984,272,32,-3792,34.47,0.9601381692573402,32.14,0.9692277325437948,3859.9814453125,-7606.27783203125,22.799999237060547,12.194717407226562,0,0.0,0.0,0.0,0.0,3.803680391952774,0.0,0.0,0.0,0.0,0.0,0.0,0.0,11,0.9646829509005674,38.999690755208334,-76.10463053385416,-2.2683958248000002,-1.7300107398,2.8139593776000003,-1.9669001772,-1.6007983194000002,2.4693929232,5.040843900025,19.084591023337502,-5.2094421691,5.18500763735,18.9746356304625,-4.9883096567625005,1.40128,-0.8149,-1.9314,1.54918,0.77604,-0.57072,-2.117648001,-1.6654045296,2.6416761504000004,5.1129257686875,19.0296133269,-5.09887591293125,1.47523,-0.019430000000000003,-1.25106,8.00224,0.94144,-111.56064,33.305
34159,4344045,0,-1759,-266,-98,1171,13876,-2330,3080,-1455,-4020,-1778,-270,-248,1277,13725,-2155,3554,1316,-1424,144,336,-3888,34.46,0.9591808536886256,32.11,0.9683691093017518,3859.9814453125,-7606.27783203125,22.799999237060547,12.194717407226562,0,0.0,0.0,0.0,0.0,3.803680391952774,0.0,0.0,0.0,0.0,0.0,0.0,0.0,11,0.9637749814951887,38.999690755208334,-76.10463053385416,-12.6269248602,-1.9094724348,-0.7034898444000001,-12.7633157484,-1.938186306,-1.7802600144,1.4306418339625,16.95267812815,-2.8466229488750003,1.5601448522375,16.768197413437502,-2.6328207960625,1.7864,-0.8439,-2.3316,2.06132,0.76328,-0.82592,-12.695120304300001,-1.9238293704,-1.2418749294,1.4953933431,16.86043777079375,-2.73972187246875,1.92386,-0.04031000000000001,-1.57876,4.23648,9.88512,-114.38496,33.285
34160,4344195,0,-933,-208,281,1192,8896,1802,3747,-1410,-3904,-932,-216,129,1386,8822,1894,3554,1316,-1424,160,160,-3856,34.46,0.9575721687638786,32.11,0.9666025166543302,3859.9814453125,-7606.27783203125,22.799999237060547,12.194717407226562,0,0.0,0.0,0.0,0.0,3.803680391952774,0.0,0.0,0.0,0.0,0.0,0.0,0.0,11,0.9620873427091043,38.999690755208334,-76.10463053385416,-6.6975104574,-1.4931213024,2.0171494518,-6.690331989600001,-1.5505490448,0.9260223462,1.4562980923,10.8684797224,2.201551310675,1.693313050275,10.778071954925,2.3139501567250003,2.17326,-0.8178,-2.26432,2.06132,0.76328,-0.82592,-6.6939212235,-1.5218351736,1.471585899,1.5748055712875,10.8232758386625,2.2577507337,2.1172899999999997,-0.027260000000000006,-1.54512,4.7072,4.7072,-113.44352,33.285
34161,4344346,0,54,-190,-238,2417,8872,2230,3747,-1410,-3904,30,-195,-245,2585,8846,2301,3862,1301,-1212,160,-80,-3952,34.45,0.9560819146311376,32.1,0.9652109548482606,3859.9814453125,-7606.27783203125,22.799999237060547,12.194717407226562,0,0.0,0.0,0.0,0.0,3.803680391952774,0.0,0.0,0.0,0.0,0.0,0.0,0.0,11,0.960646434739699,38.999690755208334,-76.10463053385416,0.3876372612,-1.363908882,-1.7084753364,0.215354034,-1.3998012210000002,-1.758724611,2.9529131619875,10.8391582843,2.724450290125,3.1581632286875,10.807393393025,2.8111928778375,2.17326,-0.8178,-2.26432,2.23996,0.75458,-0.70296,0.3014956476,-1.3818550515,-1.7335999737,3.0555381953375003,10.8232758386625,2.76782158398125,2.20661,-0.03160999999999997,-1.48364,4.7072,-2.3536,-116.26784,33.275000000000006
34162,4344496,0,258,-239,-1021,1098,10264,449,3747,-1447,-3781,246,-232,-979,1248,10197,472,3881,1285,-1042,192,-64,-4128,34.44,0.9540883296323712,32.11,0.9629903774981496,3859.9814453125,-7606.27783203125,22.799999237060547,12.194717407226562,0,0.0,0.0,0.0,0.0,3.803680391952774,0.0,0.0,0.0,0.0,0.0,0.0,0.0,11,0.9585393535652604,38.999690755208334,-76.10463053385416,1.8520446924,-1.7156538042,-7.329215623800001,1.7659030788,-1.6654045296,-7.0277199762,1.341455793075,12.539801694100001,0.5485552377875,1.5247147812000001,12.4579460127375,0.5766549493,2.17326,-0.83926,-2.19298,2.25098,0.7453,-0.60436,1.8089738856,-1.6905291669,-7.1784678,1.4330852871375002,12.49887385341875,0.5626050935437501,2.21212,-0.04698000000000002,-1.39867,5.64864,-1.88288,-121.44576,33.275
34163,4344646,0,-211,-239,-716,-1220,10706,293,3866,-1448,-3527,-254,-215,-692,-1036,10619,301,3881,1285,-1042,80,112,-4048,34.44,0.9525289908709598,32.1,0.9615593387614112,3859.9814453125,-7606.27783203125,22.799999237060547,12.194717407226562,0,0.0,0.0,0.0,0.0,3.803680391952774,0.0,0.0,0.0,0.0,0.0,0.0,0.0,11,0.9570441648161855,38.999690755208334,-76.10463053385416,-1.5146567058,-1.7156538042,-5.1397829448,-1.8233308212000001,-1.5433705770000001,-4.9674997176,-1.49050643675,13.079804845775001,0.3579658901375,-1.2657087446500002,12.9735146326625,0.3677397028375,2.24228,-0.83984,-2.04566,2.25098,0.7453,-0.60436,-1.6689937635,-1.6295121906,-5.0536413312,-1.3781075907,13.02665973921875,0.3628527964875,2.24663,-0.047270000000000034,-1.3250099999999998,2.3536,3.29504,-119.09216,33.269999999999996
34164,4344797,0,1,-178,-80,-1351,11301,1516,3701,-1445,-2967,-6,-175,-101,-1088,11234,1514,3936,1274,-673,160,-64,-3824,34.46,0.9519072292129288,32.11,0.960986923266716,3859.9814453125,-7606.27783203125,22.799999237060547,12.194717407226562,0,0.0,0.0,0.0,0.0,3.803680391952774,0.0,0.0,0.0,0.0,0.0,0.0,0.0,11,0.9564470762398224,38.999690755208334,-76.10463053385416,0.0071784678,-1.2777672684,-0.574277424,-0.0430708068,-1.256231865,-0.7250252478,-1.6505526197125,13.8067321653375,1.85213750665,-1.3292385272,13.724876483975,1.8496940534750002,2.14658,-0.8381,-1.72086,2.28288,0.73892,-0.39034,-0.0179461695,-1.2669995667,-0.6496513359,-1.48989557345625,13.765804324656251,1.8509157800625,2.2147300000000003,-0.04958999999999997,-1.0556,4.7072,-1.88288,-112.50208,33.285
34165,4344947,0,345,-178,6,-93,11912,1125,3701,-1445,-2967,326,-170,-53,64,11809,1196,3493,1317,-140,192,-144,-3888,34.46,0.9509005674808784,32.12,0.9595854922279792,3859.9814453125,-7606.27783203125,22.799999237060547,12.194717407226562,0,0.0,0.0,0.0,0.0,3.803680391952774,0.0,0.0,0.0,0.0,0.0,0.0,0.0,11,0.9552430298544288,38.999690755208334,-76.10463053385416,2.4765713910000002,-1.2777672684,0.0430708068,2.3401805028,-1.220339526,-0.3804587934,-0.1136205726375,14.5532071103,1.3744424109375,0.0781905016,14.427369271787502,1.46118499865,2.14658,-0.8381,-1.72086,2.02594,0.76386,-0.0812,2.4083759469,-1.2490533972,-0.1686939933,-0.01771503551875,14.490288191043751,1.41781370479375,2.0862600000000002,-0.037119999999999986,-0.90103,5.64864,-4.23648,-114.38496,33.29
34166,4345098,0,376,-198,-334,-36,13574,-294,3136,-1440,-2743,355,-189,-353,136,13483,-252,2919,1315,-203,144,-96,-3936,34.47,0.9494201825808044,32.12,0.9584505304712558,3859.9814453125,-7606.27783203125,22.799999237060547,12.194717407226562,0,0.0,0.0,0.0,0.0,3.803680391952774,0.0,0.0,0.0,0.0,0.0,0.0,0.0,11,0.9539353565260301,38.999690755208334,-76.10463053385416,2.6991038928,-1.4213366244,-2.3976082452000003,2.548356069,-1.3567304142,-2.5339991334,-0.04398215715,16.583716698725002,-0.359187616725,0.1661548159,16.472539579262502,-0.30787510005,1.81888,-0.8352,-1.59094,1.69302,0.7627,-0.11774,2.6237299809000003,-1.3890335193,-2.4658036893000004,0.061086329375,16.52812813899375,-0.33353135838750003,1.75595,-0.036250000000000004,-0.85434,4.23648,-2.82432,-115.79712,33.295
34167,4345248,0,2,-196,-222,-1104,13924,-569,2601,-1432,-2971,-3,-195,-242,-913,13836,-543,2919,1315,-203,176,-64,-3920,34.48,0.948107574636072,32.12,0.9571280532938564,3859.9814453125,-7606.27783203125,22.799999237060547,12.194717407226562,0,0.0,0.0,0.0,0.0,3.803680391952774,0.0,0.0,0.0,0.0,0.0,0.0,0.0,11,0.9526178139649641,38.999690755208334,-76.10463053385416,0.0143569356,-1.4069796888000001,-1.5936198516,-0.0215354034,-1.3998012210000002,-1.7371892076000002,-1.3487861526,17.011321004350002,-0.6951624282875001,-1.1154363743875,16.90380906465,-0.6633975370125,1.50858,-0.83056,-1.72318,1.69302,0.7627,-0.11774,-0.0035892338999999997,-1.4033904549000003,-1.6654045296,-1.23211126349375,16.9575650345,-0.67927998265,1.6008,-0.03392999999999996,-0.92046,5.17792,-1.88288,-115.3264,33.3
34168,4345398,0,-40,-177,6,-1029,13154,208,2482,-1434,-3351,-46,-176,-32,-841,13072,233,2612,1329,-583,176,-32,-3888,34.5,0.9468936590180114,32.13,0.95586479151246,3859.9814453125,-7606.27783203125,22.799999237060547,12.194717407226562,0,0.0,0.0,0.0,0.0,3.803680391952774,0.0,0.0,0.0,0.0,0.0,0.0,0.0,11,0.9513792252652357,38.999690755208334,-76.10463053385416,-0.287138712,-1.2705888006000001,0.0430708068,-0.3302095188,-1.2634103328000001,-0.2297109696,-1.2571566585375,16.070591531975,0.2541191302,-1.0274720600875,15.9704099518,0.2846622948875,1.43956,-0.83172,-1.94358,1.51496,0.77082,-0.33814,-0.3086741154,-1.2669995667,-0.0933200814,-1.1423143593125,16.020500741887503,0.26939071254375,1.47726,-0.030450000000000033,-1.14086,5.17792,-0.94144,-114.38496,33.315
34169,4345549,0,160,-153,58,-120,12473,326,2556,-1404,-3821,150,-155,38,54,12398,363,2591,1343,-1043,128,-80,-3936,34.5,0.9457093510979522,32.12,0.9548679990130768,3859.9814453125,-7606.27783203125,22.799999237060547,12.194717407226562,0,0.0,0.0,0.0,0.0,3.803680391952774,0.0,0.0,0.0,0.0,0.0,0.0,0.0,11,0.9502886750555145,38.999690755208334,-76.10463053385416,1.148554848,-1.0983055734,0.4163511324,1.07677017,-1.112662509,0.2727817764,-0.1466071905,15.238595725887501,0.39828286752500003,0.06597323572500001,15.146966231825001,0.44348675126250003,1.48248,-0.81432,-2.21618,1.50278,0.77894,-0.60494,1.1126625090000002,-1.1054840412,0.3445664544,-0.0403169773875,15.192780978856252,0.42088480939375006,1.4926300000000001,-0.01769000000000004,-1.41056,3.76576,-2.3536,-115.79712,33.31
34170,4345699,0,104,-163,-74,196,12193,-316,2556,-1404,-3821,101,-170,-86,372,12117,-280,2951,1312,-1431,224,-16,-3888,34.51,0.9445645201085616,32.12,0.953584998766346,3859.973876953125,-7606.29833984375,26.399999618530277,12.194717407226562,0,0.0,0.0,0.0,0.0,3.803680391952774,0.0,0.0,0.0,0.0,0.0,0.0,0.0,11,0.9490747594374538,38.99956461588542,-76.10497233072917,0.7465606512,-1.1700902514,-0.5312066172000001,0.7250252478,-1.220339526,-0.6173482308,0.23945841115000002,14.896512281387501,-0.38606560165000003,0.45448229055,14.8036610607375,-0.3420834445,1.48248,-0.81432,-2.21618,1.71158,0.76096,-0.82998,0.7357929495,-1.1952148887,-0.574277424,0.34697035085,14.8500866710625,-0.364074523075,1.5970300000000002,-0.026680000000000037,-1.52308,6.59008,-0.47072,-114.38496,33.315
34171,4345850,0,-22,-167,-176,-115,11879,-500,3028,-1434,-4055,-14,-163,-201,71,11775,-475,2951,1312,-1431,176,-32,-3904,34.52,0.943409819886504,32.15,0.952361213915618,3859.973876953125,-7606.29833984375,26.399999618530277,12.194717407226562,0,0.0,0.0,0.0,0.0,3.803680391952774,0.0,0.0,0.0,0.0,0.0,0.0,0.0,11,0.9478855169010609,38.99956461588542,-76.10497233072917,-0.15792629160000002,-1.1988041226000001,-1.2634103328000001,-0.10049854920000001,-1.1700902514,-1.4428720278,-0.14049855756250001,14.512890132912501,-0.61086329375,0.0867425877125,14.385830567812501,-0.5803201290625001,1.75624,-0.83172,-2.3519,1.71158,0.76096,-0.82998,-0.12921242040000003,-1.184447187,-1.3531411803000002,-0.026877984925000008,14.4493603503625,-0.5955917114062501,1.73391,-0.03538000000000002,-1.59094,5.17792,-0.94144,-114.85568,33.335
34172,4346000,0,-125,-153,-28,-244,11282,-49,3572,-1452,-3956,-134,-158,-38,-75,11201,-29,3506,1304,-1431,96,-32,-3952,34.53,0.9422945965951148,32.18,0.9509795213422156,3859.973876953125,-7606.29833984375,26.399999618530277,12.194717407226562,0,0.0,0.0,0.0,0.0,3.803680391952774,0.0,0.0,0.0,0.0,0.0,0.0,0.0,11,0.9466370589686652,38.99956461588542,-76.10497233072917,-0.897308475,-1.0983055734,-0.20099709840000002,-0.9619146852,-1.1341979124000001,-0.2727817764,-0.29810128735,13.783519360175001,-0.059864602787500006,-0.09162949406250001,13.684559506587501,-0.035430071037500004,2.07176,-0.84216,-2.29448,2.03348,0.75632,-0.82998,-0.9296115801,-1.1162517429,-0.2368894374,-0.19486539070625003,13.734039433381252,-0.047647336912500005,2.05262,-0.042920000000000014,-1.56223,2.82432,-0.94144,-116.26784,33.355000000000004
34173,4346150,0,-40,-131,15,169,10722,195,3839,-1460,-3567,-47,-131,-7,330,10647,226,3857,1267,-1073,128,-80,-3872,34.54,0.9410313348137184,32.18,0.9498050826548236,3859.973876953125,-7606.29833984375,26.399999618530277,12.194717407226562,0,0.0,0.0,0.0,0.0,3.803680391952774,0.0,0.0,0.0,0.0,0.0,0.0,0.0,11,0.945418208734271,38.99956461588542,-76.10497233072917,-0.287138712,-0.9403792818000001,0.107677017,-0.3373879866,-0.9403792818000001,-0.050249274600000005,0.2064717932875,13.099352471175001,0.23823668456250002,0.403169773875,13.0077229771125,0.27611020877500003,2.22662,-0.8468,-2.06886,2.23706,0.73486,-0.62234,-0.3122633493,-0.9403792818000001,0.028713871199999998,0.30482078358125003,13.053537724143752,0.25717344666875,2.23184,-0.05597000000000002,-1.3456,3.76576,-2.3536,-113.91424,33.36
34174,4346301,0,-4,-127,-63,499,10457,11,3839,-1460,-3567,0,-137,-97,668,10377,45,3905,1247,-597,208,-48,-3872,34.54,0.9400542807796692,32.19,0.9486405132000988,3859.973876953125,-7606.29833984375,26.399999618530277,12.194717407226562,0,0.0,0.0,0.0,0.0,3.803680391952774,0.0,0.0,0.0,0.0,0.0,0.0,0.0,11,0.944347396989884,38.99956461588542,-76.10497233072917,-0.0287138712,-0.9116654106000001,-0.45224347140000004,0.0,-0.9834500886,-0.6963113766,0.6096415671625001,12.7755949254875,0.0134389924625,0.81611336045,12.6778567984875,0.0549776964375,2.22662,-0.8468,-2.06886,2.2649,0.72326,-0.34626,-0.0143569356,-0.9475577496,-0.574277424,0.7128774638062501,12.7267258619875,0.03420834445,2.2457599999999998,-0.06176999999999999,-1.20756,6.11936,-1.41216,-113.91424,33.364999999999995
34175,4346451,0,-49,-125,-130,305,10164,-120,3795,-1452,-3151,-47,-121,-162,447,10067,-109,3905,1247,-597,128,-32,-3888,34.55,0.9388502343942758,32.2,0.9476535899333828,3859.973876953125,-7606.29833984375,26.399999618530277,12.194717407226562,0,0.0,0.0,0.0,0.0,3.803680391952774,0.0,0.0,0.0,0.0,0.0,0.0,0.0,11,0.9432519121638293,38.99956461588542,-76.10497233072917,-0.35174492220000003,-0.897308475,-0.933200814,-0.3373879866,-0.8685946038000001,-1.1629117836,0.3726266091875,12.41762903535,-0.1466071905,0.5461117846125,12.2991215563625,-0.13316819803750002,2.2011,-0.84216,-1.82758,2.2649,0.72326,-0.34626,-0.3445664544,-0.8829515394,-1.0480562988,0.4593691969,12.35837529585625,-0.13988769426875003,2.2329999999999997,-0.05945,-1.08692,3.76576,-0.94144,-114.38496,33.375
34176,4346601,0,-55,-121,-135,79,9957,1,3608,-1463,-2871,-72,-124,-155,224,9890,16,3727,1296,-310,128,-16,-3904,34.55,0.9377843572662226,32.22,0.946627189735998,3859.973876953125,-7606.29833984375,26.399999618530277,12.194717407226562,0,0.0,0.0,0.0,0.0,3.803680391952774,0.0,0.0,0.0,0.0,0.0,0.0,0.0,11,0.9422057735011102,38.99956461588542,-76.10497233072917,-0.394815729,-0.8685946038000001,-0.969093153,-0.5168496816,-0.8901300072,-1.112662509,0.09651640041250001,12.164731631737501,0.0012217265875,0.27366675560000003,12.082875950375001,0.0195476254,2.09264,-0.84854,-1.66518,2.16166,0.75168,-0.1798,-0.4558327053,-0.8793623055,-1.040877831,0.18509157800625003,12.12380379105625,0.01038467599375,2.12715,-0.04842999999999997,-0.92249,3.76576,-0.47072,-114.85568,33.385
34177,4346751,0,-75,-112,-58,18,9598,300,3225,-1453,-2731,-78,-115,-101,176,9510,318,3394,1305,-173,96,-32,-4000,34.54,0.9369356032568468,32.22,0.9457093510979522,3859.973876953125,-7606.29833984375,26.399999618530277,12.194717407226562,0,0.0,0.0,0.0,0.0,3.803680391952774,0.0,0.0,0.0,0.0,0.0,0.0,0.0,11,0.9413224771773995,38.99956461588542,-76.10497233072917,-0.538385085,-0.8039883936000001,-0.4163511324,-0.5599204884,-0.825523797,-0.7250252478,0.021991078575,11.726131786825,0.36651797625000004,0.2150238794,11.618619847125,0.38850905482500003,1.8705,-0.84274,-1.58398,1.96852,0.7569,-0.10034,-0.5491527867,-0.8147560953,-0.5706881901,0.1185074789875,11.672375816975,0.3775135155375,1.91951,-0.042920000000000014,-0.84216,2.82432,-0.94144,-117.68,33.379999999999995
34178,4346901,0,-20,-104,-48,183,9328,390,3225,-1453,-2731,-24,-105,-83,334,9257,413,3394,1305,-173,160,-48,-3888,34.55,0.9359289415247964,32.23,0.9447322970639032,3859.973876953125,-7606.29833984375,26.399999618530277,12.194717407226562,0,0.0,0.0,0.0,0.0,3.803680391952774,0.0,0.0,0.0,0.0,0.0,0.0,0.0,11,0.9403306192943498,38.99956461588542,-76.10497233072917,-0.143569356,-0.7465606512,-0.3445664544,-0.1722832272,-0.753739119,-0.5958128274000001,0.2235759655125,11.3962656082,0.47647336912500005,0.408056680225,11.3095230204875,0.5045730806375001,1.8705,-0.84274,-1.58398,1.96852,0.7569,-0.10034,-0.1579262916,-0.7501498851,-0.47018964090000004,0.31581632286875,11.35289431434375,0.49052322488125005,1.91951,-0.042920000000000014,-0.84216,4.7072,-1.41216,-114.38496,33.39
34179,4347052,0,0,-97,-72,264,9199,264,2805,-1438,-2845,-4,-111,-103,422,9128,277,2914,1331,-188,176,-112,-3936,34.55,0.9351887490747596,32.24,0.9437651122625216,3859.973876953125,-7606.29833984375,26.399999618530277,12.194717407226562,0,0.0,0.0,0.0,0.0,3.803680391952774,0.0,0.0,0.0,0.0,0.0,0.0,0.0,11,0.9394769306686406,38.99956461588542,-76.10497233072917,0.0,-0.6963113766,-0.5168496816,-0.0287138712,-0.7968099258,-0.7393821834000001,0.3225358191,11.2386628784125,0.3225358191,0.515568619925,11.1519202907,0.33841826473750003,1.6269,-0.83404,-1.6501,1.69012,0.77198,-0.10904,-0.0143569356,-0.7465606512,-0.6281159325000001,0.41905221951250005,11.19529158455625,0.33047704191875005,1.6585100000000002,-0.031030000000000002,-0.87957,5.17792,-3.29504,-115.79712,33.394999999999996
34180,4347202,0,0,-109,-97,158,9004,132,2538,-1430,-3106,-1,-108,-97,295,8915,151,2659,1346,-499,96,-16,-3936,34.57,0.9342610412040464,32.24,0.9428077966938072,3859.973876953125,-7606.29833984375,26.399999618530277,12.194717407226562,0,0.0,0.0,0.0,0.0,3.803680391952774,0.0,0.0,0.0,0.0,0.0,0.0,0.0,11,0.9385344189489269,38.99956461588542,-76.10497233072917,0.0,-0.7824529902,-0.6963113766,-0.0071784678,-0.7752745224,-0.6963113766,0.19303280082500002,11.00042619385,0.16126790955,0.3604093433125,10.891692527562501,0.18448071471250002,1.47204,-0.8294,-1.80148,1.54222,0.78068,-0.28942,-0.0035892339,-0.7788637563,-0.6963113766,0.27672107206875,10.94605936070625,0.17287431213125,1.50713,-0.024359999999999993,-1.04545,2.82432,-0.47072,-115.79712,33.405
34181,4347352,0,-59,-90,-128,-51,8842,204,2473,-1387,-3510,-66,-93,-142,85,8762,210,2543,1357,-848,48,32,-3984,34.57,0.9332346410066618,32.24,0.9418406118924254,3859.973876953125,-7606.29833984375,26.399999618530277,12.194717407226562,0,0.0,0.0,0.0,0.0,3.803680391952774,0.0,0.0,0.0,0.0,0.0,0.0,0.0,11,0.9375376264495436,38.99956461588542,-76.10497233072917,-0.4235296002,-0.646062102,-0.9188438784,-0.4737788748,-0.6675975054000001,-1.0193424276,-0.062308055962500004,10.802506486675,0.24923222385000002,0.1038467599375,10.704768359675,0.256562583375,1.43434,-0.80446,-2.0358,1.47494,0.78706,-0.49184,-0.4486542375,-0.6568298037,-0.969093153,0.0207693519875,10.753637423175,0.2528974036125,1.45464,-0.008699999999999986,-1.26382,1.41216,0.94144,-117.20928,33.405
34182,4347503,0,-25,-85,-68,-115,8664,394,2473,-1387,-3510,-26,-87,-98,32,8588,406,2543,1357,-848,64,-16,-3952,34.58,0.932385886997286,32.24,0.94119911176906,3859.973876953125,-7606.29833984375,26.399999618530277,12.194717407226562,0,0.0,0.0,0.0,0.0,3.803680391952774,0.0,0.0,0.0,0.0,0.0,0.0,0.0,11,0.936792499383173,38.99956461588542,-76.10497233072917,-0.179461695,-0.610169763,-0.48813581040000004,-0.1866401628,-0.6245266986,-0.7034898444000001,-0.14049855756250001,10.5850391541,0.48136027547500004,0.0390952508,10.492187933450001,0.49602099452500004,1.43434,-0.80446,-2.0358,1.47494,0.78706,-0.49184,-0.18305092890000002,-0.6173482308,-0.5958128274000001,-0.05070165338125,10.538613543775,0.48869063500000004,1.45464,-0.008699999999999986,-1.26382,1.88288,-0.47072,-116.26784,33.41
34183,4347653,0,-9,-79,-55,36,8464,470,2568,-1401,-3815,-21,-76,-74,178,8394,482,2662,1382,-1201,48,-16,-4016,34.57,0.9316160868492476,32.25,0.940281273131014,3859.973876953125,-7606.29833984375,26.399999618530277,12.194717407226562,0,0.0,0.0,0.0,0.0,3.803680391952774,0.0,0.0,0.0,0.0,0.0,0.0,0.0,11,0.9359486799901308,38.99956461588542,-76.10497233072917,-0.0646062102,-0.5670989562000001,-0.394815729,-0.1507478238,-0.5455635528,-0.5312066172000001,0.04398215715,10.3406938366,0.574211496125,0.217467332575,10.255172975475,0.588872215175,1.48944,-0.81258,-2.2127,1.54396,0.80156,-0.69658,-0.10767701700000001,-0.5563312545000001,-0.46301117310000006,0.1307247448625,10.297933406037501,0.58154185565,1.5167000000000002,-0.005509999999999959,-1.45464,1.41216,-0.47072,-118.15072,33.41
34184,4347804,0,6,-70,-57,140,8254,398,2831,-1377,-4033,3,-76,-91,276,8196,408,2902,1378,-1427,48,-16,-3904,34.58,0.9310436713545522,32.26,0.9396101653096472,3859.973876953125,-7606.29833984375,26.399999618530277,12.194717407226562,0,0.0,0.0,0.0,0.0,3.803680391952774,0.0,0.0,0.0,0.0,0.0,0.0,0.0,11,0.9353269183320998,38.99956461588542,-76.10497233072917,0.0430708068,-0.502492746,-0.4091726646,0.0215354034,-0.5455635528,-0.6532405698,0.17104172225,10.084131253225001,0.48624718182500004,0.33719653815,10.01327111115,0.49846444770000004,1.64198,-0.79866,-2.33914,1.68316,0.79924,-0.82766,0.0323031051,-0.5240281494000001,-0.5312066172000001,0.2541191302,10.0487011821875,0.4923558147625,1.66257,0.00028999999999995696,-1.5834,1.41216,-0.47072,-114.85568,33.42
34185,4347954,0,11,-74,-78,176,8105,273,3130,-1398,-4123,6,-67,-99,321,8025,275,3223,1354,-1489,128,-16,-3888,34.57,0.9302146558105108,32.27,0.93873180360227,3859.973876953125,-7606.29833984375,26.399999618530277,12.194717407226562,0,0.0,0.0,0.0,0.0,3.803680391952774,0.0,0.0,0.0,0.0,0.0,0.0,0.0,11,0.9344732297063905,38.99956461588542,-76.10497233072917,0.07896314580000001,-0.5312066172000001,-0.5599204884,0.0430708068,-0.4809573426,-0.7106683122,0.2150238794,9.9020939916875,0.33353135838750003,0.3921742345875,9.804355864687501,0.33597481156250003,1.8154,-0.81084,-2.39134,1.86934,0.78532,-0.86362,0.061016976300000005,-0.5060819799,-0.6352944003000001,0.30359905699375,9.853224928187501,0.334753084975,1.8423699999999998,-0.012759999999999994,-1.62748,3.76576,-0.47072,-114.38496,33.42
34186,4348104,0,4,-73,-128,92,7965,148,3130,-1398,-4123,-1,-69,-141,234,7887,145,3223,1354,-1489,128,-48,-3968,34.59,0.9295731556871452,32.26,0.9379521342215644,3859.973876953125,-7606.29833984375,26.399999618530277,12.194717407226562,0,0.0,0.0,0.0,0.0,3.803680391952774,0.0,0.0,0.0,0.0,0.0,0.0,0.0,11,0.9337626449543548,38.99956461588542,-76.10497233072917,0.0287138712,-0.5240281494,-0.9188438784,-0.0071784678,-0.4953142782,-1.0121639598,0.11239884605,9.7310522694375,0.18081553495,0.285884021475,9.6357575956125,0.1771503551875,1.8154,-0.81084,-2.39134,1.86934,0.78532,-0.86362,0.0107677017,-0.5096712138,-0.9655039191000001,0.19914143376250001,9.683404932525,0.17898294506875,1.8423699999999998,-0.012759999999999994,-1.62748,3.76576,-1.41216,-116.73856,33.425
34187,4348255,0,-19,-75,-111,-116,7755,170,3467,-1398,-4036,-30,-65,-133,38,7667,155,3584,1357,-1427,160,-16,-3872,34.59,0.928388847767086,32.25,0.9372810264001974,3859.98828125,-7606.33349609375,30.899999618530277,12.194717407226562,0,0.0,0.0,0.0,0.0,3.803680391952774,0.0,0.0,0.0,0.0,0.0,0.0,0.0,11,0.9328349370836417,38.9998046875,-76.10555826822916,-0.1363908882,-0.538385085,-0.7968099258,-0.215354034,-0.466600407,-0.9547362174,-0.14172028415000001,9.474489686062501,0.207693519875,0.046425610325000005,9.366977746362501,0.18936762106250002,2.01086,-0.81084,-2.34088,2.07872,0.78706,-0.82766,-0.1758724611,-0.502492746,-0.8757730716000001,-0.047647336912500005,9.420733716212501,0.19853057046875,2.04479,-0.011890000000000012,-1.5842699999999998,4.7072,-0.47072,-113.91424,33.42
34188,4348405,0,-40,-58,-68,-196,7539,333,3728,-1402,-3831,-35,-68,-101,-60,7452,311,3849,1313,-1158,48,-32,-3904,34.6,0.9281618554157416,32.26,0.936886257093511,3859.98828125,-7606.33349609375,30.899999618530277,12.194717407226562,0,0.0,0.0,0.0,0.0,3.803680391952774,0.0,0.0,0.0,0.0,0.0,0.0,0.0,11,0.9325240562546263,38.9998046875,-76.10555826822916,-0.287138712,-0.4163511324,-0.48813581040000004,-0.251246373,-0.48813581040000004,-0.7250252478,-0.23945841115000002,9.210596743162501,0.4068349536375,-0.07330359525,9.10430653005,0.3799569687125,2.16224,-0.81316,-2.22198,2.23242,0.76154,-0.67164,-0.2691925425,-0.4522434714,-0.6065805291,-0.1563810032,9.15745163660625,0.393395961175,2.19733,-0.02581,-1.44681,1.41216,-0.94144,-114.85568,33.43
34189,4348556,0,-15,-58,-38,-147,7285,462,3865,-1428,-3509,-25,-52,-72,-12,7204,446,3849,1313,-1158,64,16,-3888,34.6,0.927392055267703,32.26,0.9361263261781396,3859.98828125,-7606.33349609375,30.899999618530277,12.194717407226562,0,0.0,0.0,0.0,0.0,3.803680391952774,0.0,0.0,0.0,0.0,0.0,0.0,0.0,11,0.9317591907229212,38.9998046875,-76.10555826822916,-0.107677017,-0.4163511324,-0.2727817764,-0.179461695,-0.3732803256,-0.5168496816,-0.1795938083625,8.9002781899375,0.564437683425,-0.01466071905,8.80131833635,0.544890058025,2.2417,-0.82824,-2.03522,2.23242,0.76154,-0.67164,-0.143569356,-0.394815729,-0.394815729,-0.09712726370625,8.850798263143751,0.554663870725,2.2370599999999996,-0.03334999999999999,-1.35343,1.88288,0.47072,-114.38496,33.43
34190,4348706,0,4,-51,-46,-33,7159,469,3865,-1428,-3509,0,-53,-69,114,7083,463,3954,1264,-877,48,48,-3904,34.6,0.9269676782630152,32.26,0.93553417221811,3859.98828125,-7606.33349609375,30.899999618530277,12.194717407226562,0,0.0,0.0,0.0,0.0,3.803680391952774,0.0,0.0,0.0,0.0,0.0,0.0,0.0,11,0.9312509252405625,38.9998046875,-76.10555826822916,0.0287138712,-0.36610185780000004,-0.3302095188,0.0,-0.3804587934,-0.4953142782,-0.0403169773875,8.7463406399125,0.5729897695375,0.13927683097500002,8.6534894192625,0.5656594100125,2.2417,-0.82824,-2.03522,2.29332,0.73312,-0.50866,0.0143569356,-0.3732803256,-0.4127618985,0.049479926793750004,8.699915029587501,0.569324589775,2.2675099999999997,-0.04755999999999999,-1.2719399999999998,1.41216,1.41216,-114.85568,33.43
34191,4348856,0,10,-45,-54,54,6927,382,3812,-1446,-3247,3,-50,-66,191,6858,379,3873,1273,-591,96,-32,-3824,34.62,0.926099185788305,32.26,0.9349124105600788,3859.98828125,-7606.33349609375,30.899999618530277,12.194717407226562,0,0.0,0.0,0.0,0.0,3.803680391952774,0.0,0.0,0.0,0.0,0.0,0.0,0.0,11,0.9305057981741919,38.9998046875,-76.10555826822916,0.071784678,-0.323031051,-0.3876372612,0.0215354034,-0.35892339,-0.4737788748,0.06597323572500001,8.4629000716125,0.466699556425,0.2333497782125,8.378600937075001,0.4630343766625,2.21096,-0.83868,-1.88326,2.24634,0.73834,-0.34278000000000003,0.0466600407,-0.3409772205,-0.43070806800000005,0.14966150696875,8.42075050434375,0.46486696654375004,2.22865,-0.05016999999999999,-1.11302,2.82432,-0.94144,-112.50208,33.44
34192,4349007,0,6,-48,-66,86,6756,279,3648,-1439,-2993,8,-46,-81,213,6682,266,3702,1262,-389,32,-48,-3968,34.61,0.9256452010856157,32.28,0.9342018258080436,3859.98828125,-7606.33349609375,30.899999618530277,12.194717407226562,0,0.0,0.0,0.0,0.0,3.803680391952774,0.0,0.0,0.0,0.0,0.0,0.0,0.0,11,0.9299235134468296,38.9998046875,-76.10555826822916,0.0430708068,-0.3445664544,-0.4737788748,0.0574277424,-0.3302095188,-0.5814558918,0.105068486525,8.25398482515,0.34086171791250003,0.2602277631375,8.163577057675,0.324979272275,2.11584,-0.83462,-1.73594,2.14716,0.73196,-0.22562000000000001,0.050249274600000005,-0.3373879866,-0.5276173833,0.18264812483125,8.2087809414125,0.33292049509375,2.1315,-0.05132999999999999,-0.98078,0.94144,-1.41216,-116.73856,33.445
34193,4349157,0,6,-43,-61,30,6584,189,3436,-1440,-2859,0,-39,-80,152,6498,182,3702,1262,-389,160,-128,-3936,34.62,0.9251320009869232,32.26,0.9338267949666912,3859.98828125,-7606.33349609375,30.899999618530277,12.194717407226562,0,0.0,0.0,0.0,0.0,3.803680391952774,0.0,0.0,0.0,0.0,0.0,0.0,0.0,11,0.9294793979768072,38.9998046875,-76.10555826822916,0.0430708068,-0.3086741154,-0.43788653580000003,0.0,-0.2799602442,-0.574277424,0.036651797625,8.0438478521,0.2309063250375,0.18570244130000002,7.938779365575001,0.222354238925,1.99288,-0.8352,-1.65822,2.14716,0.73196,-0.22562000000000001,0.0215354034,-0.2943171798,-0.5060819799,0.11117711946250002,7.991313608837501,0.22663028198125001,2.07002,-0.05162,-0.94192,4.7072,-3.76576,-115.79712,33.44
34194,4349308,0,2,-47,-55,-65,6499,88,3436,-1440,-2859,-3,-43,-74,64,6408,86,3443,1249,-216,32,-80,-3856,34.62,0.9244806316308908,32.26,0.9333530717986676,3859.98828125,-7606.33349609375,30.899999618530277,12.194717407226562,0,0.0,0.0,0.0,0.0,3.803680391952774,0.0,0.0,0.0,0.0,0.0,0.0,0.0,11,0.9289168517147792,38.9998046875,-76.10555826822916,0.0143569356,-0.3373879866,-0.394815729,-0.0215354034,-0.3086741154,-0.5312066172000001,-0.0794122281875,7.9400010921625,0.1075119397,0.0781905016,7.8288239727,0.105068486525,1.99288,-0.8352,-1.65822,1.99694,0.72442,-0.12528,-0.0035892338999999997,-0.323031051,-0.46301117310000006,-0.0006108632937499997,7.88441253243125,0.1062902131125,1.99491,-0.05539000000000005,-0.89175,0.94144,-2.3536,-113.44352,33.44
34195,4349458,0,-4,-36,-42,-147,6311,114,3193,-1453,-2766,-19,-33,-69,-14,6220,91,3198,1270,-192,160,-80,-3920,34.63,0.9241450777202072,32.27,0.9327905255366395,3859.98828125,-7606.33349609375,30.899999618530277,12.194717407226562,0,0.0,0.0,0.0,0.0,3.803680391952774,0.0,0.0,0.0,0.0,0.0,0.0,0.0,11,0.9284678016284234,38.9998046875,-76.10555826822916,-0.0287138712,-0.2584248408,-0.3014956476,-0.1363908882,-0.2368894374,-0.4953142782,-0.1795938083625,7.7103164937125,0.13927683097500002,-0.017104172225000002,7.59913937425,0.1111771194625,1.85194,-0.84274,-1.60428,1.85484,0.7366,-0.11136,-0.0825523797,-0.2476571391,-0.39840496290000005,-0.09834899029375,7.65472793398125,0.12522697521875,1.85339,-0.053070000000000006,-0.8578199999999999,4.7072,-2.3536,-115.3264,33.45
34196,4349608,0,-5,-39,-40,-170,6079,156,2951,-1463,-2819,-19,-37,-57,-35,5990,123,2967,1320,-224,96,-48,-3920,34.64,0.9235430545275104,32.27,0.9323464100666172,3859.98828125,-7606.33349609375,30.899999618530277,12.194717407226562,0,0.0,0.0,0.0,0.0,3.803680391952774,0.0,0.0,0.0,0.0,0.0,0.0,0.0,11,0.9279447322970638,38.9998046875,-76.10555826822916,-0.035892339,-0.2799602442,-0.287138712,-0.1363908882,-0.26560330860000003,-0.4091726646,-0.207693519875,7.4268759254125,0.19058934765000002,-0.0427604305625,7.3181422591250005,0.1502723702625,1.71158,-0.84854,-1.63502,1.72086,0.7656000000000001,-0.12992,-0.0861416136,-0.2727817764,-0.3481556883,-0.12522697521875,7.37250909226875,0.17043085895625001,1.71622,-0.04146999999999995,-0.88247,2.82432,-1.41216,-115.3264,33.455
34197,4349759,0,-4,-33,-23,-164,5873,205,2718,-1444,-2877,-14,-34,-48,-33,5792,179,2967,1320,-224,112,-128,-3920,34.62,0.923029854428818,32.26,0.9316950407105848,3859.98828125,-7606.33349609375,30.899999618530277,12.194717407226562,0,0.0,0.0,0.0,0.0,3.803680391952774,0.0,0.0,0.0,0.0,0.0,0.0,0.0,11,0.9273624475697014,38.9998046875,-76.10555826822916,-0.0287138712,-0.2368894374,-0.1651047594,-0.10049854920000001,-0.24406790520000002,-0.3445664544,-0.20036316035,7.1752002483875,0.2504539504375,-0.0403169773875,7.0762403948,0.2186890591625,1.57644,-0.83752,-1.66866,1.72086,0.7656000000000001,-0.12992,-0.0646062102,-0.2404786713,-0.2548356069,-0.12034006886875001,7.12572032159375,0.2345715048,1.64865,-0.03595999999999999,-0.89929,3.29504,-3.76576,-115.3264,33.44
34198,4349909,0,0,-28,-26,-124,5667,239,2718,-1444,-2877,-6,-32,-47,-12,5566,210,2771,1320,-338,224,-16,-3904,34.63,0.9224969158647915,32.26,0.9313693560325684,3859.98828125,-7606.33349609375,30.899999618530277,12.194717407226562,0,0.0,0.0,0.0,0.0,3.803680391952774,0.0,0.0,0.0,0.0,0.0,0.0,0.0,11,0.92693313594868,38.9998046875,-76.10555826822916,0.0,-0.20099709840000002,-0.1866401628,-0.0430708068,-0.2297109696,-0.3373879866,-0.15149409685,6.9235245713625,0.2919926544125,-0.01466071905,6.800130186025,0.256562583375,1.57644,-0.83752,-1.66866,1.60718,0.7656000000000001,-0.19604,-0.0215354034,-0.21535403400000003,-0.26201407470000004,-0.08307740795,6.86182737869375,0.27427761889375,1.5918100000000002,-0.03595999999999999,-0.93235,6.59008,-0.47072,-114.85568,33.445
34199,4350059,0,-3,-26,-37,-109,5498,240,2558,-1413,-3067,-16,-26,-56,21,5400,219,2590,1345,-522,32,-16,-3936,34.65,0.9221712311867752,32.28,0.9310436713545522,3859.98828125,-7606.33349609375,30.899999618530277,12.194717407226562,0,0.0,0.0,0.0,0.0,3.803680391952774,0.0,0.0,0.0,0.0,0.0,0.0,0.0,11,0.9266074512706637,38.9998046875,-76.10555826822916,-0.0215354034,-0.1866401628,-0.26560330860000003,-0.1148554848,-0.1866401628,-0.40199419680000004,-0.13316819803750002,6.717052778075001,0.293214381,0.0256562583375,6.597323572500001,0.2675581226625,1.48364,-0.81954,-1.77886,1.5022,0.7801,-0.30276000000000003,-0.0681954441,-0.1866401628,-0.33379875270000003,-0.05375596985000001,6.657188175287501,0.28038625183125,1.49292,-0.019720000000000015,-1.04081,0.94144,-0.47072,-115.79712,33.465
34200,4350210,0,-4,-22,-29,-111,5319,236,2464,-1413,-3321,-16,-26,-53,9,5220,214,2553,1355,-737,96,-32,-3808,34.64,0.9218258080434246,32.28,0.9305502097211942,3859.98828125,-7606.33349609375,30.899999618530277,12.194717407226562,0,0.0,0.0,0.0,0.0,3.803680391952774,0.0,0.0,0.0,0.0,0.0,0.0,0.0,11,0.9261880088823093,38.9998046875,-76.10555826822916,-0.0287138712,-0.15792629160000002,-0.2081755662,-0.1148554848,-0.1866401628,-0.3804587934,-0.13561165121250002,6.4983637189125005,0.28832747465,0.0109955392875,6.37741278675,0.26144948972500004,1.42912,-0.81954,-1.92618,1.48074,0.7859,-0.42746,-0.071784678,-0.1722832272,-0.2943171798,-0.06230805596250001,6.43788825283125,0.27488848218750006,1.45493,-0.01682,-1.17682,2.82432,-0.94144,-112.03136,33.46
34201,4350360,0,5,-25,-25,-87,5214,227,2430,-1398,-3489,2,-25,-42,42,5126,200,2553,1355,-737,96,-48,-3856,34.63,0.9218554157414262,32.28,0.9301949173451765,3859.98828125,-7606.33349609375,30.899999618530277,12.194717407226562,0,0.0,0.0,0.0,0.0,3.803680391952774,0.0,0.0,0.0,0.0,0.0,0.0,0.0,11,0.9260251665433012,38.9998046875,-76.10555826822916,0.035892339,-0.179461695,-0.179461695,0.0143569356,-0.179461695,-0.3014956476,-0.1062902131125,6.370082427225,0.2773319353625,0.051312516675,6.262570487525,0.24434531750000002,1.4094,-0.81084,-2.02362,1.48074,0.7859,-0.42746,0.025124637300000002,-0.179461695,-0.2404786713,-0.02748884821875,6.316326457375,0.26083862643125,1.4450699999999999,-0.012469999999999981,-1.22554,2.82432,-1.41216,-113.44352,33.455
34202,4350511,0,0,-19,-30,-96,5116,202,2430,-1398,-3489,-1,-18,-55,25,5016,172,2534,1354,-914,96,-160,-3760,34.64,0.921292869479398,32.27,0.9300666173205032,3859.98828125,-7606.33349609375,30.899999618530277,12.194717407226562,0,0.0,0.0,0.0,0.0,3.803680391952774,0.0,0.0,0.0,0.0,0.0,0.0,0.0,11,0.9256797433999506,38.9998046875,-76.10555826822916,0.0,-0.1363908882,-0.215354034,-0.0071784678,-0.1292124204,-0.394815729,-0.1172857524,6.25035322165,0.24678877067500002,0.030543164687500002,6.1281805629,0.21013697305,1.4094,-0.81084,-2.02362,1.46972,0.78532,-0.53012,-0.0035892339,-0.13280165430000002,-0.3050848815,-0.04337129385625,6.1892668922750005,0.22846287186250003,1.43956,-0.012759999999999994,-1.2768700000000002,2.82432,-4.7072,-110.6192,33.455
34203,4350661,0,-1,-24,-26,-110,5000,179,2459,-1375,-3712,-8,-15,-56,15,4903,151,2617,1344,-1142,192,-64,-3936,34.66,0.9208981001727116,32.28,0.9296422403158154,3859.98828125,-7606.33349609375,30.899999618530277,12.194717407226562,0,0.0,0.0,0.0,0.0,3.803680391952774,0.0,0.0,0.0,0.0,0.0,0.0,0.0,11,0.9252701702442635,38.9998046875,-76.10555826822916,-0.0071784678,-0.1722832272,-0.1866401628,-0.0574277424,-0.107677017,-0.40199419680000004,-0.13438992462500002,6.1086329375,0.2186890591625,0.0183258988125,5.9901254585125,0.18448071471250002,1.42622,-0.7975,-2.15296,1.51786,0.77952,-0.66236,-0.0323031051,-0.1399801221,-0.29431717980000005,-0.058032012906250006,6.04937919800625,0.2015848869375,1.47204,-0.008989999999999998,-1.4076600000000001,5.64864,-1.88288,-115.79712,33.47
34204,4350811,0,-2,-20,-19,-109,4876,180,2570,-1377,-3844,-17,-12,-44,7,4769,146,2617,1344,-1142,96,-16,-3888,34.65,0.9207895386133728,32.28,0.9294448556624724,3859.98828125,-7606.33349609375,30.899999618530277,12.194717407226562,0,0.0,0.0,0.0,0.0,3.803680391952774,0.0,0.0,0.0,0.0,0.0,0.0,0.0,11,0.9251171971379226,38.9998046875,-76.10555826822916,-0.0143569356,-0.143569356,-0.1363908882,-0.12203395260000001,-0.0861416136,-0.31585258320000004,-0.13316819803750002,5.95713884065,0.21991078575,0.008552086112500001,5.8264140957875,0.178372081775,1.4906,-0.79866,-2.22952,1.51786,0.77952,-0.66236,-0.0681954441,-0.1148554848,-0.22612173570000002,-0.06230805596250001,5.89177646821875,0.1991414337625,1.50423,-0.009570000000000023,-1.44594,2.82432,-0.47072,-114.38496,33.465
34205,4350962,0,-7,-17,-23,-106,4684,196,2716,-1389,-3971,-15,-16,-41,13,4605,166,2747,1392,-1293,208,-16,-3920,34.66,0.9202862077473476,32.29,0.9292079940784604,3859.99462890625,-7606.3486328125,66.5999984741211,12.194717407226562,0,0.0,0.0,0.0,0.0,3.803680391952774,0.0,0.0,0.0,0.0,0.0,0.0,0.0,11,0.924747100912904,38.99991048177083,-76.105810546875,-0.050249274600000005,-0.12203395260000001,-0.1651047594,-0.107677017,-0.1148554848,-0.2943171798,-0.129503018275,5.72256733585,0.23945841115000002,0.0158824456375,5.6260509354375,0.202806613525,1.57528,-0.80562,-2.3031800000000002,1.59326,0.80736,-0.74994,-0.0789631458,-0.1184447187,-0.22971096959999998,-0.05681028631875,5.67430913564375,0.22113251233750003,1.58427,0.0008699999999999819,-1.5265600000000001,6.11936,-0.47072,-115.3264,33.474999999999994
34206,4351112,0,-7,-19,-21,-95,4538,219,2716,-1389,-3971,-19,-15,-42,34,4452,181,2912,1350,-1404,176,-16,-3952,34.66,0.9201085615593388,32.29,0.9289217863311128,3859.99462890625,-7606.3486328125,66.5999984741211,12.194717407226562,0,0.0,0.0,0.0,0.0,3.803680391952774,0.0,0.0,0.0,0.0,0.0,0.0,0.0,11,0.9245151739452258,38.99991048177083,-76.105810546875,-0.050249274600000005,-0.1363908882,-0.1507478238,-0.1363908882,-0.107677017,-0.3014956476,-0.1160640258125,5.544195254075,0.2675581226625,0.041538703975,5.43912676755,0.2211325123375,1.57528,-0.80562,-2.3031800000000002,1.68896,0.783,-0.81432,-0.0933200814,-0.1220339526,-0.22612173570000002,-0.037262660918749996,5.4916610108125,0.2443453175,1.63212,-0.011309999999999987,-1.55875,5.17792,-0.47072,-116.26784,33.474999999999994
34207,4351263,0,-13,-13,-12,-78,4396,222,2893,-1401,-4065,-19,-12,-40,39,4308,173,3100,1358,-1459,64,-32,-3824,34.66,0.9201776461880088,32.3,0.9288428324697756,3859.99462890625,-7606.3486328125,66.5999984741211,12.194717407226562,0,0.0,0.0,0.0,0.0,3.803680391952774,0.0,0.0,0.0,0.0,0.0,0.0,0.0,11,0.9245102393288922,38.99991048177083,-76.105810546875,-0.0933200814,-0.0933200814,-0.0861416136,-0.1363908882,-0.0861416136,-0.287138712,-0.09529467382500001,5.37071007865,0.27122330242500003,0.047647336912500005,5.26319813895,0.2113586996375,1.67794,-0.81258,-2.3577,1.798,0.78764,-0.84622,-0.1148554848,-0.0897308475,-0.1866401628,-0.023823668456250002,5.3169541088,0.24129100103125,1.73797,-0.012469999999999981,-1.60196,1.88288,-0.94144,-112.50208,33.48
34208,4351413,0,-6,-11,-11,-56,4288,245,3053,-1423,-4095,-19,-10,-35,55,4197,201,3100,1358,-1459,128,-32,-3904,34.66,0.92006908462867,32.3,0.9284776708610906,3859.99462890625,-7606.3486328125,66.5999984741211,12.194717407226562,0,0.0,0.0,0.0,0.0,3.803680391952774,0.0,0.0,0.0,0.0,0.0,0.0,0.0,11,0.9242733777448803,38.99991048177083,-76.105810546875,-0.0430708068,-0.07896314580000001,-0.07896314580000001,-0.1363908882,-0.071784678,-0.251246373,-0.06841668890000001,5.2387636072,0.2993230139375,0.06719496231250001,5.1275864877375,0.24556704408750002,1.77074,-0.82534,-2.3751,1.798,0.78764,-0.84622,-0.0897308475,-0.0753739119,-0.16510475940000002,-0.0006108632937499997,5.18317504746875,0.2724450290125,1.78437,-0.018849999999999978,-1.6106600000000002,3.76576,-0.94144,-114.85568,33.48
34209,4351563,0,-9,-10,-17,-24,4179,235,3236,-1413,-4076,-20,-12,-41,74,4089,202,3252,1334,-1505,32,0,-3808,34.66,0.9198026153466567,32.29,0.9284579323957562,3859.99462890625,-7606.3486328125,66.5999984741211,12.194717407226562,0,0.0,0.0,0.0,0.0,3.803680391952774,0.0,0.0,0.0,0.0,0.0,0.0,0.0,11,0.9241302738712065,38.99991048177083,-76.105810546875,-0.0646062102,-0.071784678,-0.12203395260000001,-0.143569356,-0.0861416136,-0.2943171798,-0.0293214381,5.1055954091625,0.2871057480625,0.090407767475,4.9956400162875,0.24678877067500002,1.87688,-0.81954,-2.36408,1.88616,0.77372,-0.8729,-0.1040877831,-0.0789631458,-0.2081755662,0.0305431646875,5.050617712725,0.26694725936875,1.88152,-0.02291000000000004,-1.61849,0.94144,0.0,-112.03136,33.474999999999994
34210,4351714,0,-9,-10,-13,-8,4105,268,3415,-1411,-4075,-24,-13,-33,101,4031,221,3424,1331,-1446,112,-48,-3936,34.67,0.9194867999013075,32.28,0.9284283246977548,3859.99462890625,-7606.3486328125,66.5999984741211,12.194717407226562,0,0.0,0.0,0.0,0.0,3.803680391952774,0.0,0.0,0.0,0.0,0.0,0.0,0.0,11,0.9239575622995312,38.99991048177083,-76.105810546875,-0.0646062102,-0.071784678,-0.0933200814,-0.1722832272,-0.0933200814,-0.2368894374,-0.0097738127,5.0151876416875005,0.32742272545,0.12339438533750001,4.924779874212501,0.2700015758375,1.9807,-0.81838,-2.3635,1.98592,0.77198,-0.83868,-0.1184447187,-0.08255237970000001,-0.16510475940000002,0.05681028631875001,4.969983757950001,0.29871215064375,1.98331,-0.0232,-1.6010900000000001,3.29504,-1.41216,-115.79712,33.475
34211,4351864,0,-11,-8,-5,24,4045,261,3415,-1411,-4075,-22,-16,-37,148,3952,218,3565,1309,-1370,144,-16,-3840,34.67,0.9194177152726376,32.27,0.9284085862324204,3859.99462890625,-7606.3486328125,66.5999984741211,12.194717407226562,0,0.0,0.0,0.0,0.0,3.803680391952774,0.0,0.0,0.0,0.0,0.0,0.0,0.0,11,0.923913150752529,38.99991048177083,-76.105810546875,-0.07896314580000001,-0.0574277424,-0.035892339,-0.15792629160000002,-0.1148554848,-0.26560330860000003,0.0293214381,4.9418840464375,0.31887063933750004,0.18081553495,4.8282634738,0.26633639607500004,1.9807,-0.81838,-2.3635,2.0677,0.75922,-0.7946,-0.1184447187,-0.0861416136,-0.1507478238,0.105068486525,4.88507376011875,0.29260351770625004,2.0242,-0.029579999999999995,-1.57905,4.23648,-0.47072,-112.9728,33.47
34212,4352015,0,-14,-13,-15,60,3967,258,3535,-1417,-3996,-21,-7,-40,169,3880,222,3565,1309,-1370,160,-112,-3808,34.67,0.9194867999013075,32.29,0.9282408092770787,3859.99462890625,-7606.3486328125,66.5999984741211,12.194717407226562,0,0.0,0.0,0.0,0.0,3.803680391952774,0.0,0.0,0.0,0.0,0.0,0.0,0.0,11,0.9238638045891931,38.99991048177083,-76.105810546875,-0.10049854920000001,-0.0933200814,-0.107677017,-0.1507478238,-0.050249274600000005,-0.287138712,0.07330359525,4.8465893726125,0.315205459575,0.2064717932875,4.7402991595,0.27122330242500003,2.0503,-0.82186,-2.31768,2.0677,0.75922,-0.7946,-0.1256231865,-0.071784678,-0.1974078645,0.13988769426875,4.79344426605625,0.293214381,2.059,-0.031320000000000014,-1.55614,4.7072,-3.29504,-112.03136,33.480000000000004
34213,4352165,0,-17,-13,-8,92,3924,244,3632,-1419,-3863,-24,-11,-36,201,3840,203,3713,1310,-1297,112,-64,-3920,34.67,0.9193782383419687,32.3,0.9283098939057488,3859.99462890625,-7606.3486328125,66.5999984741211,12.194717407226562,0,0.0,0.0,0.0,0.0,3.803680391952774,0.0,0.0,0.0,0.0,0.0,0.0,0.0,11,0.9238440661238587,38.99991048177083,-76.105810546875,-0.12203395260000001,-0.0933200814,-0.0574277424,-0.1722832272,-0.07896314580000001,-0.2584248408,0.11239884605,4.79405512935,0.29810128735,0.24556704408750002,4.691430096,0.24801049726250002,2.10656,-0.82302,-2.24054,2.15354,0.7598,-0.75226,-0.1471585899,-0.0861416136,-0.1579262916,0.17898294506875,4.742742612675,0.27305589230625005,2.1300499999999998,-0.03160999999999997,-1.4964000000000002,3.29504,-1.88288,-115.3264,33.485
34214,4352315,0,-14,-11,-8,102,3913,223,3740,-1435,-3753,-22,-9,-31,282,3819,183,3793,1290,-1178,128,-64,-3888,34.68,0.919319022945966,32.29,0.92813224771774,3859.99462890625,-7606.3486328125,66.5999984741211,12.194717407226562,0,0.0,0.0,0.0,0.0,3.803680391952774,0.0,0.0,0.0,0.0,0.0,0.0,0.0,11,0.923725635331853,38.99991048177083,-76.105810546875,-0.10049854920000001,-0.07896314580000001,-0.0574277424,-0.15792629160000002,-0.0646062102,-0.2225325018,0.12461611192500001,4.780616136887501,0.2724450290125,0.344526897675,4.6657738376625,0.2235759655125,2.1692,-0.8323,-2.17674,2.1999400000000002,0.7482,-0.68324,-0.12921242040000003,-0.071784678,-0.1399801221,0.2345715048,4.723194987275001,0.24801049726250002,2.18457,-0.04205000000000003,-1.42999,3.76576,-1.88288,-114.38496,33.485
34215,4352466,0,56,37,243,389,4238,177,3740,-1435,-3753,82,80,246,525,4081,198,3793,1290,-1178,128,-32,-3856,34.68,0.9194571922033062,32.28,0.9282210708117444,3859.99462890625,-7606.3486328125,66.5999984741211,12.194717407226562,0,0.0,0.0,0.0,0.0,3.803680391952774,0.0,0.0,0.0,0.0,0.0,0.0,0.0,11,0.9238391315075254,38.99991048177083,-76.105810546875,0.40199419680000004,0.26560330860000003,1.7443676754000002,0.5886343596,0.574277424,1.7659030788,0.4752516425375,5.177677277825,0.2162456059875,0.6414064584375,4.9858662035875,0.24190186432500002,2.1692,-0.8323,-2.17674,2.1999400000000002,0.7482,-0.68324,0.4953142782,0.41994036630000003,1.7551353771000002,0.5583290504875,5.08177174070625,0.22907373515625,2.18457,-0.04205000000000003,-1.42999,3.76576,-0.94144,-113.44352,33.480000000000004
34216,4352616,0,-13,-8,-17,489,4023,272,3814,-1422,-3677,-43,-9,-30,594,3933,240,3864,1295,-1063,144,32,-3872,34.67,0.9193782383419687,32.31,0.928319763138416,3859.99462890625,-7606.3486328125,66.5999984741211,12.194717407226562,0,0.0,0.0,0.0,0.0,3.803680391952774,0.0,0.0,0.0,0.0,0.0,0.0,0.0,11,0.9238490007401924,38.99991048177083,-76.105810546875,-0.0933200814,-0.0574277424,-0.12203395260000001,-0.3086741154,-0.0646062102,-0.215354034,0.5974243012875,4.9150060615125,0.3323096318,0.725705592975,4.8050506686375005,0.293214381,2.21212,-0.82476,-2.13266,2.24112,0.7511,-0.61654,-0.20099709840000002,-0.0610169763,-0.1686939933,0.66156494713125,4.860028365075,0.3127620064,2.22662,-0.03683000000000003,-1.3746,4.23648,0.94144,-113.91424,33.49
34217,4352767,0,-14,-10,-1,603,3879,202,3837,-1425,-3541,-18,-10,-33,722,3785,179,3931,1301,-982,48,32,-3952,34.66,0.9197335307179868,32.3,0.9283395016037504,3859.99462890625,-7606.3486328125,66.5999984741211,12.194717407226562,0,0.0,0.0,0.0,0.0,3.803680391952774,0.0,0.0,0.0,0.0,0.0,0.0,0.0,11,0.9240365161608686,38.99991048177083,-76.105810546875,-0.10049854920000001,-0.071784678,-0.0071784678,-0.1292124204,-0.071784678,-0.2368894374,0.7367011322625,4.7390774329125005,0.24678877067500002,0.8820865961750001,4.6242351336875,0.2186890591625,2.22546,-0.8265,-2.05378,2.27998,0.75458,-0.56956,-0.1148554848,-0.071784678,-0.12203395260000001,0.80939386421875,4.681656283300001,0.23273891491875,2.25272,-0.03595999999999999,-1.3116700000000001,1.41216,0.94144,-116.26784,33.48
34218,4352917,0,2,-5,4,743,3866,108,3863,-1443,-3442,-23,-5,-14,849,3781,94,3923,1301,-868,144,-32,-3888,34.67,0.9196348383913152,32.3,0.928448063163089,3859.99462890625,-7606.3486328125,66.5999984741211,12.194717407226562,0,0.0,0.0,0.0,0.0,3.803680391952774,0.0,0.0,0.0,0.0,0.0,0.0,0.0,11,0.9240414507772021,38.99991048177083,-76.105810546875,0.0143569356,-0.035892339,0.0287138712,-0.1651047594,-0.035892339,-0.10049854920000001,0.9077428545125,4.723194987275,0.13194647145000002,1.0372458727875,4.6193482273375,0.114842299225,2.24054,-0.83694,-1.99636,2.27534,0.75458,-0.50344,-0.07537391189999999,-0.035892339,-0.035892339,0.9724943636500001,4.671271607306251,0.12339438533750001,2.25794,-0.041179999999999994,-1.2499,4.23648,-0.94144,-114.38496,33.485
34219,4353067,0,-255,-6,12,933,3940,-30,3863,-1443,-3442,-14,-4,0,1046,3854,-54,3923,1301,-868,32,-16,-3824,34.66,0.919881569207994,32.31,0.9285467554897606,3859.99462890625,-7606.3486328125,66.5999984741211,12.194717407226562,0,0.0,0.0,0.0,0.0,3.803680391952774,0.0,0.0,0.0,0.0,0.0,0.0,0.0,11,0.9242141623488773,38.99991048177083,-76.105810546875,-1.830509289,-0.0430708068,0.0861416136,-0.10049854920000001,-0.0287138712,0.0,1.1398709061375,4.813602754750001,-0.036651797625,1.277926010525,4.708534268225001,-0.06597323572500001,2.24054,-0.83694,-1.99636,2.27534,0.75458,-0.50344,-0.9655039191000001,-0.035892339,0.0430708068,1.20889845833125,4.761068511487501,-0.051312516675,2.25794,-0.041179999999999994,-1.2499,0.94144,-0.47072,-112.50208,33.485
34220,4353218,0,5,-7,15,1199,3886,-283,3827,-1425,-3314,3,-4,4,1290,3808,-291,3947,1277,-786,80,-16,-3872,34.65,0.9200986923266716,32.29,0.9286651862817666,3859.99462890625,-7606.3486328125,66.5999984741211,12.194717407226562,0,0.0,0.0,0.0,0.0,3.803680391952774,0.0,0.0,0.0,0.0,0.0,0.0,0.0,11,0.9243819393042192,38.99991048177083,-76.105810546875,0.035892339,-0.050249274600000005,0.107677017,0.0215354034,-0.0287138712,0.0287138712,1.4648501784125,4.747629519025001,-0.3457486242625,1.576027297875,4.6523348452,-0.3555224369625,2.21966,-0.8265,-1.92212,2.28926,0.74066,-0.45588,0.0287138712,-0.039481572900000005,0.0681954441,1.52043873814375,4.6999821821125005,-0.3506355306125,2.25446,-0.042920000000000014,-1.189,2.3536,-0.47072,-113.91424,33.47
34221,4353368,0,174,209,64,1440,3090,-628,3877,-1399,-3299,114,164,155,1519,2995,-652,3975,1290,-721,80,-64,-3808,34.66,0.9203355539106834,32.3,0.9288527017024426,3859.99462890625,-7606.3486328125,66.5999984741211,12.194717407226562,0,0.0,0.0,0.0,0.0,3.803680391952774,0.0,0.0,0.0,0.0,0.0,0.0,0.0,11,0.924594127806563,38.99991048177083,-76.105810546875,1.2490533972,1.5002997702,0.4594219392,0.8183453292,1.1772687192,1.112662509,1.759286286,3.775135155375,-0.7672442969500001,1.8558026864125001,3.6590711295625002,-0.7965657350500001,2.24866,-0.81142,-1.9134200000000001,2.3055,0.7482,-0.41818,1.0336993632,1.3387842447,0.7860422241,1.80754448620625,3.7171031424687504,-0.7819050160000001,2.2770799999999998,-0.03161000000000003,-1.1658,2.3536,-1.88288,-112.03136,33.48
34222,4353518,0,33,20,-45,-3537,1100,2432,3831,-1426,-3172,55,27,93,-3377,1083,2261,3923,1272,-578,48,-96,-3968,34.66,0.9205526770293608,32.29,0.929237601776462,3859.99462890625,-7606.3486328125,66.5999984741211,12.194717407226562,0,0.0,0.0,0.0,0.0,3.803680391952774,0.0,0.0,0.0,0.0,0.0,0.0,0.0,11,0.9248951394029115,38.99991048177083,-76.105810546875,0.2368894374,0.143569356,-0.323031051,0.394815729,0.1938186306,0.6675975054000001,-4.3212469399875,1.3438992462500001,2.9712390608000003,-4.1257706859875,1.3231298942625,2.7623238143375,2.22198,-0.82708,-1.83976,2.27534,0.73776,-0.33524,0.3158525832,0.1686939933,0.17228322720000003,-4.2235088129875,1.33351457025625,2.86678143756875,2.24866,-0.04466000000000003,-1.0875,1.41216,-2.82432,-116.73856,33.474999999999994
34223,4353669,0,6,55,-11,-3217,-211,2146,3831,-1426,-3172,-7,56,-39,-3076,-313,1984,3923,1272,-578,80,-64,-3888,34.66,0.920680977054034,32.29,0.9295139402911424,3859.997802734375,-7606.35205078125,78.80000305175781,12.194717407226562,0,0.0,0.0,0.0,0.0,3.803680391952774,0.0,0.0,0.0,0.0,0.0,0.0,0.0,11,0.9250974586725882,38.99996337890625,-76.10586751302084,0.0430708068,0.394815729,-0.07896314580000001,-0.050249274600000005,0.40199419680000004,-0.2799602442,-3.9302944319875004,-0.2577843099625,2.6218252567750002,-3.7580309831500003,-0.3824004218875,2.4239055496,2.22198,-0.82708,-1.83976,2.27534,0.73776,-0.33524,-0.0035892339000000023,0.39840496290000005,-0.179461695,-3.84416270756875,-0.320092365925,2.5228654031875,2.24866,-0.04466000000000003,-1.0875,2.3536,-1.88288,-114.38496,33.474999999999994
