loc,time,ax,ay,az,temp,press,alt,avalt,avaltdelta,state,wx_raw,wy_raw,wz_raw,pyro
12402560, 4180854, 1.00, -0.00, -0.00, 1952.85, 101328.77, 17.12, 17.21, 0, 2, 17, 42, -34, 34
12402624, 4180955, 1.00, 0.00, -0.00, 1952.33, 101321.99, 17.69, 17.20, 0, 2, 18, 43, -39, 34
12402688, 4181051, 1.00, 0.00, -0.00, 1952.79, 101329.25, 17.08, 17.20, 0, 2, 18, 41, -31, 34
12402752, 4181151, 1.00, 0.00, 0.00, 1953.07, 101329.27, 17.08, 17.20, 0, 2, 18, 48, -27, 34
12402816, 4181252, 1.00, -0.00, 0.00, 1952.85, 101324.35, 17.49, 17.18, 0, 2, 15, 43, -29, 34
12402880, 4181352, 0.99, -0.00, 0.00, 1952.96, 101323.44, 17.56, 17.21, 0, 2, 10, 45, -33, 34
12402944, 4181450, 1.00, -0.01, 0.00, 1953.04, 101329.80, 17.04, 17.21, 0, 2, 12, 41, -29, 34
12403008, 4181551, 1.00, -0.01, 0.00, 1952.66, 101328.66, 17.13, 17.19, 0, 2, 9, 41, -34, 34
12403072, 4181651, 1.00, -0.00, -0.00, 1952.60, 101327.66, 17.21, 17.20, 0, 2, 14, 39, -31, 34
12403136, 4181749, 1.00, -0.00, 0.00, 1952.71, 101330.83, 16.95, 17.19, 0, 2, 21, 46, -36, 34
12403200, 4181850, 1.00, 0.00, -0.00, 1952.38, 101333.89, 16.69, 17.18, 0, 2, 10, 45, -30, 34
12403264, 4181950, 1.00, -0.01, 0.00, 1952.57, 101329.89, 17.03, 17.15, 0, 2, 6, 42, -32, 34
12403328, 4182050, 1.00, -0.00, 0.00, 1952.74, 101330.32, 16.99, 17.14, 0, 2, 15, 47, -39, 34
12403392, 4182149, 1.00, -0.00, 0.00, 1952.74, 101329.14, 17.09, 17.14, 0, 2, 19, 41, -31, 34
12403456, 4182249, 1.00, -0.00, -0.00, 1952.74, 101328.25, 17.16, 17.14, 0, 2, 11, 33, -33, 34
12403520, 4182349, 1.00, 0.00, -0.00, 1952.55, 101329.25, 17.08, 17.13, 0, 2, 13, 40, -29, 34
12403584, 4182448, 1.00, -0.00, -0.00, 1952.52, 101329.19, 17.09, 17.14, 0, 2, 21, 41, -33, 34
12403648, 4182548, 1.00, 0.01, -0.00, 1952.66, 101327.47, 17.23, 17.15, 0, 2, 18, 46, -27, 34
12403712, 4182650, 1.00, -0.01, -0.00, 1952.52, 101327.42, 17.23, 17.17, 0, 2, 6, 40, -28, 34
12403776, 4182751, 1.00, -0.00, 0.00, 1952.57, 101332.25, 16.83, 17.16, 0, 2, 11, 44, -35, 34
12403840, 4182849, 1.00, -0.00, 0.00, 1952.41, 101328.36, 17.15, 17.14, 0, 2, 15, 40, -36, 34
12403904, 4182951, 1.00, -0.00, -0.00, 1952.08, 101324.99, 17.43, 17.14, 0, 2, 19, 37, -35, 34
12403968, 4183052, 1.00, 0.00, -0.00, 1952.46, 101328.49, 17.14, 17.13, 0, 2, 14, 46, -35, 34
12404032, 4183150, 1.00, -0.00, 0.00, 1952.30, 101328.11, 17.18, 17.13, 0, 2, 12, 50, -26, 34
12404096, 4183252, 1.00, 0.00, 0.00, 1952.19, 101322.58, 17.63, 17.14, 0, 2, 16, 46, -31, 34
12404160, 4183351, 1.00, -0.00, 0.00, 1952.38, 101324.49, 17.48, 17.14, 0, 2, 14, 45, -31, 34
12404224, 4183451, 1.00, -0.00, 0.00, 1952.22, 101331.16, 16.92, 17.14, 0, 2, 9, 46, -33, 34
12404288, 4183549, 1.00, -0.00, 0.00, 1952.08, 101324.39, 17.48, 17.13, 0, 2, 9, 38, -34, 34
12404352, 4183650, 1.00, -0.00, -0.00, 1952.00, 101324.78, 17.45, 17.15, 0, 2, 18, 38, -28, 34
12404416, 4183748, 1.00, -0.00, -0.00, 1952.11, 101324.74, 17.46, 17.16, 0, 2, 16, 39, -29, 34
12404480, 4183848, 1.00, -0.00, -0.00, 1952.16, 101323.39, 17.57, 17.19, 0, 2, 12, 46, -29, 34
12404544, 4183949, 1.00, 0.00, 0.00, 1951.70, 101328.22, 17.16, 17.23, 0, 2, 13, 43, -30, 34
12404608, 4184049, 1.00, -0.01, 0.00, 1952.05, 101328.42, 17.15, 17.24, 0, 2, 20, 44, -28, 34
12404672, 4184147, 1.00, -0.00, 0.00, 1952.22, 101329.11, 17.09, 17.25, 0, 2, 14, 42, -35, 34
12404736, 4184248, 1.00, -0.00, 0.00, 1952.11, 101322.69, 17.63, 17.25, 0, 2, 16, 44, -29, 34
12404800, 4184348, 0.99, -0.00, 0.00, 1951.89, 101324.24, 17.50, 17.27, 0, 2, 13, 42, -33, 34
12404864, 4184449, 1.00, -0.00, -0.00, 1951.83, 101329.71, 17.04, 17.29, 0, 2, 10, 44, -28, 34
12404928, 4184547, 1.00, -0.00, -0.00, 1951.83, 101324.71, 17.46, 17.29, 0, 2, 11, 45, -25, 34
12404992, 4184647, 1.00, -0.00, -0.00, 1951.97, 101321.78, 17.70, 17.30, 0, 2, 15, 45, -30, 34
12405056, 4184748, 1.00, -0.01, -0.00, 1951.78, 101326.33, 17.32, 17.32, 0, 2, 17, 44, -30, 34
12405120, 4184846, 1.00, -0.01, -0.00, 1951.64, 101326.03, 17.35, 17.35, 0, 2, 18, 43, -38, 34
12405184, 4184946, 1.00, 0.00, 0.00, 1951.81, 101326.42, 17.32, 17.36, 0, 2, 14, 44, -36, 34
12405248, 4185047, 1.00, -0.01, 0.00, 1951.78, 101325.75, 17.37, 17.35, 0, 2, 23, 43, -34, 34
12405312, 4185147, 1.00, -0.00, 0.00, 1951.37, 101324.25, 17.49, 17.36, 0, 2, 14, 43, -31, 34
12405376, 4185245, 1.00, 0.01, 0.00, 1951.53, 101321.66, 17.71, 17.38, 0, 2, 15, 41, -28, 34
12405440, 4185348, 1.00, 0.00, 0.00, 1951.42, 101324.38, 17.49, 17.38, 0, 2, 8, 42, -23, 34
12405504, 4185446, 1.00, -0.01, -0.00, 1951.34, 101321.25, 17.75, 17.38, 0, 2, 7, 38, -33, 34
12405568, 4185546, 1.00, -0.00, -0.00, 1951.64, 101323.67, 17.54, 17.42, 0, 2, 16, 45, -35, 34
12405632, 4185649, 1.00, -0.00, -0.00, 1951.39, 101323.44, 17.56, 17.43, 0, 2, 11, 42, -28, 34
12405696, 4185747, 1.00, -0.01, -0.00, 1951.26, 101323.11, 17.59, 17.43, 0, 2, 26, 48, -37, 34
12405760, 4185847, 1.00, 0.00, -0.00, 1951.42, 101323.80, 17.53, 17.44, 0, 2, 22, 48, -35, 34
12405824, 4185950, 1.00, 0.01, 0.01, 1951.39, 101318.74, 17.95, 17.44, 0, 2, 12, 43, -26, 34
12405888, 4186050, 1.00, -0.01, 0.01, 1951.07, 101323.55, 17.56, 17.48, 0, 2, 14, 36, -31, 34
12405952, 4186152, 1.00, 0.00, -0.00, 1951.23, 101327.74, 17.21, 17.50, 0, 2, 10, 33, -31, 34
12406016, 4186251, 1.00, 0.00, -0.00, 1951.48, 101328.02, 17.18, 17.50, 0, 2, 5, 34, -24, 34
12406080, 4186351, 1.00, -0.01, -0.01, 1951.28, 101326.42, 17.32, 17.48, 0, 2, 7, 43, -29, 34
12406144, 4186451, 1.00, 0.00, -0.01, 1951.15, 101332.86, 16.78, 17.47, 0, 2, 21, 45, -33, 34
12406208, 4186550, 1.00, -0.01, -0.00, 1951.23, 101323.03, 17.60, 17.46, 0, 2, 20, 50, -29, 34
12406272, 4186650, 0.99, -0.00, -0.00, 1950.90, 101328.47, 17.14, 17.47, 0, 2, 8, 50, -38, 34
12406336, 4186750, 1.00, 0.00, 0.01, 1951.23, 101325.38, 17.40, 17.44, 0, 2, 17, 49, -36, 34
12406400, 4186849, 1.00, -0.00, 0.00, 1951.04, 101322.91, 17.61, 17.44, 0, 2, 30, 43, -38, 34
12406464, 4186949, 1.00, 0.00, 0.00, 1950.93, 101322.35, 17.65, 17.46, 0, 2, 17, 43, -35, 34
12406528, 4187049, 1.00, -0.00, 0.00, 1950.87, 101324.00, 17.52, 17.47, 0, 2, 8, 43, -27, 34
12406592, 4187150, 1.00, -0.01, -0.00, 1951.15, 101325.21, 17.42, 17.48, 0, 2, 15, 40, -26, 34
12406656, 4187248, 1.00, -0.00, -0.00, 1950.90, 101322.60, 17.63, 17.48, 0, 2, 17, 50, -31, 34
12406720, 4187351, 1.00, -0.00, -0.00, 1950.82, 101321.82, 17.70, 17.47, 0, 2, 19, 48, -32, 34
12406784, 4187449, 1.00, -0.00, 0.00, 1951.01, 101323.71, 17.54, 17.48, 0, 2, 20, 47, -33, 34
12406848, 4187547, 1.00, 0.00, 0.01, 1951.04, 101319.96, 17.85, 17.47, 0, 2, 20, 44, -31, 34
12406912, 4187648, 1.00, 0.00, 0.00, 1950.85, 101328.36, 17.15, 17.49, 0, 2, 17, 44, -33, 34
12406976, 4187748, 1.00, -0.00, 0.00, 1951.04, 101324.38, 17.49, 17.47, 0, 2, 14, 38, -26, 34
12407040, 4187846, 1.00, 0.00, -0.00, 1951.07, 101326.49, 17.31, 17.46, 0, 2, 5, 45, -26, 34
12407104, 4187949, 1.00, -0.00, -0.00, 1950.65, 101320.85, 17.78, 17.45, 0, 2, 12, 40, -24, 34
12407168, 4188049, 1.00, -0.01, 0.00, 1950.90, 101326.11, 17.34, 17.44, 0, 2, 22, 45, -33, 34
12407232, 4188149, 1.00, -0.00, -0.00, 1950.32, 101327.17, 17.25, 17.43, 0, 2, 17, 41, -38, 34
12407296, 4188250, 0.99, 0.00, 0.00, 1950.57, 101325.10, 17.43, 17.43, 0, 2, 13, 48, -30, 34
12407360, 4188350, 1.00, -0.00, -0.00, 1950.71, 101325.38, 17.40, 17.45, 0, 2, 18, 48, -32, 34
12407424, 4188450, 1.00, 0.00, 0.01, 1950.60, 101327.80, 17.20, 17.45, 0, 2, 20, 37, -34, 34
12407488, 4188551, 1.00, 0.01, -0.00, 1950.82, 101331.22, 16.92, 17.47, 0, 2, 5, 33, -22, 34
12407552, 4188651, 1.00, -0.01, 0.00, 1950.65, 101324.97, 17.44, 17.44, 0, 2, 2, 39, -24, 34
12407616, 4188751, 1.00, -0.00, -0.01, 1950.65, 101324.38, 17.49, 17.45, 0, 2, 5, 42, -28, 34
12407680, 4188852, 1.00, -0.00, -0.00, 1950.49, 101327.52, 17.23, 17.46, 0, 2, 6, 42, -31, 34
12407744, 4188952, 0.99, -0.01, -0.00, 1950.49, 101331.94, 16.86, 17.44, 0, 2, 14, 49, -39, 34
12407808, 4189052, 1.00, -0.00, -0.00, 1950.49, 101324.58, 17.47, 17.40, 0, 2, 25, 49, -39, 34
12407872, 4189153, 1.00, -0.00, 0.00, 1950.65, 101327.91, 17.19, 17.39, 0, 2, 22, 47, -36, 34
12407936, 4189251, 1.00, 0.00, 0.00, 1950.35, 101326.35, 17.32, 17.38, 0, 2, 12, 41, -33, 34
12408000, 4189353, 1.00, 0.01, 0.00, 1950.46, 101333.35, 16.74, 17.37, 0, 2, 18, 41, -29, 34
12408064, 4189452, 1.00, -0.00, -0.00, 1950.41, 101322.64, 17.63, 17.32, 0, 2, 13, 36, -23, 34
12408128, 4189550, 1.00, -0.00, -0.00, 1950.49, 101326.05, 17.35, 17.32, 0, 2, 5, 41, -24, 34
12408192, 4189650, 1.00, -0.01, -0.00, 1950.54, 101329.72, 17.04, 17.30, 0, 2, 13, 39, -28, 34
12408256, 4189751, 1.00, -0.00, -0.00, 1950.54, 101330.02, 17.02, 17.29, 0, 2, 25, 49, -42, 34
12408320, 4189849, 1.00, -0.01, -0.00, 1950.54, 101328.25, 17.16, 17.27, 0, 2, 23, 45, -39, 34
12408384, 4189949, 1.00, -0.00, 0.00, 1950.38, 101328.77, 17.12, 17.26, 0, 2, 18, 57, -33, 34
12408448, 4190050, 1.00, 0.00, 0.01, 1950.32, 101327.47, 17.23, 17.23, 0, 2, 18, 46, -31, 34
12408512, 4190150, 0.99, -0.00, 0.00, 1950.27, 101317.63, 18.05, 17.22, 0, 2, -13, 38, -28, 34
12408576, 4190248, 1.01, 0.03, 0.01, 1950.38, 101325.52, 17.39, 17.26, 0, 2, -16, 46, -32, 34
12408640, 4190349, 0.99, -0.01, 0.02, 1950.41, 101321.77, 17.70, 17.26, 0, 2, 32, 52, -25, 34
12408704, 4190449, 0.99, 0.03, -0.02, 1950.27, 101325.86, 17.36, 17.28, 0, 2, 5, 35, -35, 34
12408768, 4190550, 1.01, 0.00, -0.00, 1950.32, 101327.17, 17.25, 17.28, 0, 2, 12, 41, -35, 34
12408832, 4190648, 1.00, -0.00, 0.00, 1950.30, 101324.47, 17.48, 17.30, 0, 2, 20, 50, -34, 34
12408896, 4190748, 0.99, 0.00, -0.01, 1950.08, 101323.67, 17.54, 17.30, 0, 2, 22, 49, -34, 34
12408960, 4190849, 1.00, 0.00, 0.00, 1950.30, 101325.94, 17.35, 17.31, 0, 2, 20, 45, -34, 34
12409024, 4190947, 1.00, -0.00, 0.01, 1950.43, 101322.11, 17.67, 17.31, 0, 2, 12, 37, -35, 34
12409088, 4191047, 1.00, -0.00, -0.00, 1950.00, 101319.67, 17.88, 17.35, 0, 2, 5, 35, -29, 34
12409152, 4191148, 1.00, -0.00, -0.00, 1949.69, 101322.47, 17.65, 17.37, 0, 2, 11, 36, -28, 34
12409216, 4191248, 1.00, -0.00, -0.00, 1950.02, 101320.32, 17.82, 17.40, 0, 2, 10, 39, -27, 34
12409280, 4191350, 1.00, -0.00, -0.00, 1950.05, 101323.05, 17.60, 17.42, 0, 2, 15, 50, -28, 34
12409344, 4191453, 1.00, -0.01, 0.00, 1950.11, 101324.02, 17.52, 17.46, 0, 2, 19, 51, -32, 34
12409408, 4191551, 1.00, -0.00, 0.00, 1949.94, 101330.13, 17.01, 17.46, 0, 2, 19, 47, -36, 34
12409472, 4191653, 1.00, 0.00, 0.01, 1950.11, 101327.55, 17.22, 17.44, 0, 2, 18, 40, -36, 34
12409536, 4191756, 1.00, 0.01, 0.00, 1949.72, 101323.14, 17.59, 17.45, 0, 2, 13, 36, -34, 34
12409600, 4191854, 1.00, 0.00, -0.00, 1949.69, 101326.60, 17.30, 17.48, 0, 2, 10, 39, -24, 34
12409664, 4191956, 1.00, -0.00, -0.00, 1949.86, 101324.33, 17.49, 17.49, 0, 2, 12, 42, -24, 34
12409728, 4192057, 1.00, -0.01, -0.00, 1949.72, 101323.44, 17.56, 17.50, 0, 2, 13, 46, -24, 34
12409792, 4192157, 1.00, -0.01, -0.00, 1949.78, 101324.46, 17.48, 17.52, 0, 2, 18, 51, -25, 34
12409856, 4192256, 1.00, -0.01, 0.00, 1949.86, 101324.63, 17.46, 17.49, 0, 2, 20, 44, -41, 34
12409920, 4192356, 1.00, 0.00, 0.00, 1949.97, 101323.13, 17.59, 17.50, 0, 2, 19, 40, -43, 34
12409984, 4192454, 1.00, 0.00, 0.00, 1949.89, 101323.22, 17.58, 17.49, 0, 2, 10, 45, -32, 34
12410048, 4192555, 1.00, 0.00, 0.00, 1950.00, 101327.03, 17.26, 17.50, 0, 2, 7, 40, -33, 34
12410112, 4192655, 1.00, -0.00, -0.01, 1949.80, 101330.99, 16.93, 17.50, 0, 2, 6, 44, -25, 34
12410176, 4192755, 1.00, -0.01, -0.00, 1949.83, 101321.05, 17.76, 17.48, 0, 2, 14, 41, -19, 34
12410240, 4192856, 1.00, -0.01, -0.00, 1949.97, 101324.30, 17.49, 17.49, 0, 2, 8, 42, -28, 34
12410304, 4192954, 1.00, -0.00, -0.00, 1949.72, 101325.21, 17.42, 17.49, 0, 2, 18, 49, -31, 34
12410368, 4193054, 0.99, -0.01, -0.00, 1949.64, 101329.42, 17.07, 17.48, 0, 2, 21, 47, -38, 34
12410432, 4193155, 1.00, 0.00, 0.00, 1949.72, 101329.03, 17.10, 17.44, 0, 2, 20, 50, -36, 34
12410496, 4193253, 1.00, 0.00, 0.00, 1949.86, 101321.99, 17.69, 17.41, 0, 2, 14, 45, -31, 34
12410560, 4193353, 1.00, -0.00, 0.00, 1949.72, 101326.10, 17.34, 17.41, 0, 2, 17, 44, -30, 34
12410624, 4193456, 1.00, -0.01, 0.00, 1949.56, 101325.72, 17.37, 17.39, 0, 2, 7, 40, -26, 34
12410688, 4193554, 1.00, -0.00, 0.00, 1949.80, 101328.92, 17.11, 17.39, 0, 2, 7, 39, -28, 34
12410752, 4193656, 1.00, -0.00, -0.00, 1949.69, 101324.53, 17.47, 17.39, 0, 2, 15, 43, -26, 34
12410816, 4193759, 1.00, -0.00, -0.00, 1949.50, 101320.60, 17.80, 17.40, 0, 2, 17, 42, -35, 34
12410880, 4193857, 1.00, -0.00, 0.00, 1949.58, 101321.07, 17.76, 17.41, 0, 2, 22, 53, -34, 34
12410944, 4193957, 1.00, 0.00, 0.00, 1949.50, 101324.42, 17.48, 17.44, 0, 2, 23, 54, -35, 34
12411008, 4194060, 1.00, -0.00, 0.01, 1949.53, 101327.42, 17.23, 17.44, 0, 2, 11, 41, -34, 34
12411072, 4194158, 1.00, -0.00, 0.01, 1949.42, 101330.10, 17.01, 17.42, 0, 2, 13, 39, -29, 34
12411136, 4194258, 1.00, 0.00, 0.00, 1949.48, 101319.64, 17.88, 17.40, 0, 2, 3, 35, -30, 34
12411200, 4194361, 1.00, 0.00, -0.00, 1949.48, 101326.71, 17.29, 17.42, 0, 2, 7, 38, -28, 34
12411264, 4194459, 1.00, 0.00, -0.01, 1949.39, 101327.67, 17.21, 17.40, 0, 2, 16, 40, -30, 34
12411328, 4194560, 1.00, -0.01, -0.00, 1949.45, 101324.00, 17.52, 17.38, 0, 2, 17, 46, -32, 34
12411392, 4194660, 1.00, -0.00, -0.00, 1949.28, 101327.16, 17.25, 17.40, 0, 2, 18, 49, -35, 34
12411456, 4194760, 1.00, -0.00, 0.00, 1949.31, 101323.99, 17.52, 17.41, 0, 2, 17, 46, -37, 34
12411520, 4194861, 1.00, 0.00, 0.01, 1949.28, 101323.03, 17.60, 17.40, 0, 2, 16, 40, -33, 34
12411584, 4194959, 1.00, 0.00, 0.00, 1949.34, 101326.97, 17.27, 17.41, 0, 2, 8, 38, -23, 34
12411648, 4195059, 1.00, -0.00, -0.00, 1949.17, 101328.64, 17.13, 17.40, 0, 2, 9, 38, -26, 34
12411712, 4195160, 1.00, -0.00, -0.00, 1949.20, 101328.44, 17.15, 17.40, 0, 2, 10, 46, -27, 34
12411776, 4195260, 1.00, -0.01, -0.00, 1949.37, 101324.69, 17.46, 17.40, 0, 2, 12, 45, -30, 34
12411840, 4195358, 1.00, -0.01, 0.00, 1949.15, 101323.00, 17.60, 17.39, 0, 2, 22, 50, -36, 34
12411904, 4195461, 1.00, -0.00, 0.00, 1949.37, 101327.63, 17.21, 17.41, 0, 2, 26, 45, -36, 34
12411968, 4195559, 1.00, 0.00, 0.00, 1949.20, 101327.27, 17.24, 17.40, 0, 2, 19, 44, -35, 34
12412032, 4195659, 1.00, 0.00, 0.00, 1949.31, 101321.33, 17.74, 17.40, 0, 2, 9, 41, -35, 34
12412096, 4195762, 1.00, 0.00, 0.00, 1949.34, 101323.46, 17.56, 17.42, 0, 2, 9, 44, -25, 34
12412160, 4195860, 1.00, -0.00, -0.00, 1949.01, 101323.30, 17.57, 17.41, 0, 2, 7, 43, -21, 34
12412224, 4195960, 1.00, -0.01, -0.00, 1948.98, 101326.19, 17.33, 17.40, 0, 2, 5, 43, -27, 34
12412288, 4196063, 1.00, -0.01, -0.00, 1949.15, 101325.36, 17.40, 17.39, 0, 2, 15, 39, -30, 34
12412352, 4196163, 1.00, -0.00, -0.00, 1948.71, 101322.05, 17.68, 17.40, 0, 2, 24, 51, -37, 34
12412416, 4196265, 1.00, -0.00, -0.00, 1948.90, 101329.21, 17.08, 17.43, 0, 2, 27, 50, -43, 34
12412480, 4196364, 0.99, 0.00, 0.00, 1948.90, 101322.74, 17.62, 17.39, 0, 2, 18, 53, -36, 34
12412544, 4196464, 1.00, 0.00, 0.01, 1948.79, 101322.21, 17.67, 17.41, 0, 2, 16, 44, -28, 34
12412608, 4196564, 1.00, 0.00, 0.01, 1948.95, 101328.77, 17.12, 17.43, 0, 2, 15, 34, -26, 34
12412672, 4196663, 1.00, 0.00, 0.01, 1948.93, 101330.17, 17.00, 17.41, 0, 2, 3, 34, -25, 34
12412736, 4196763, 1.00, -0.01, -0.00, 1948.90, 101327.74, 17.21, 17.40, 0, 2, 8, 29, -21, 34
12412800, 4196864, 1.00, -0.00, -0.01, 1948.82, 101329.03, 17.10, 17.38, 0, 2, 8, 36, -29, 34
12412864, 4196962, 1.00, -0.00, -0.01, 1948.87, 101321.21, 17.75, 17.36, 0, 2, 12, 41, -34, 34
12412928, 4197062, 1.00, -0.00, -0.00, 1949.06, 101326.07, 17.34, 17.38, 0, 2, 13, 53, -36, 34
12412992, 4197163, 1.00, 0.00, 0.00, 1948.76, 101333.03, 16.77, 17.39, 0, 2, 21, 51, -36, 34
12413056, 4197263, 1.00, -0.01, 0.01, 1948.95, 101328.77, 17.12, 17.37, 0, 2, 26, 45, -37, 34
12413120, 4197361, 1.00, 0.01, 0.01, 1948.87, 101325.03, 17.43, 17.36, 0, 2, 15, 38, -30, 34
12413184, 4197464, 1.00, -0.00, 0.00, 1948.71, 101322.64, 17.63, 17.35, 0, 2, 11, 33, -32, 34
12413248, 4197562, 1.00, 0.00, -0.01, 1948.65, 101326.88, 17.28, 17.37, 0, 2, 6, 34, -25, 34
12413312, 4197662, 1.00, -0.01, -0.01, 1948.87, 101330.61, 16.97, 17.37, 0, 2, 8, 43, -22, 34
12413376, 4197761, 1.00, -0.01, -0.01, 1948.68, 101328.75, 17.12, 17.33, 0, 2, 1, 45, -26, 34
12413440, 4197861, 1.00, 0.00, -0.00, 1948.71, 101331.75, 16.87, 17.31, 0, 2, 16, 41, -29, 34
12413504, 4197959, 1.00, -0.01, -0.00, 1948.71, 101333.22, 16.75, 17.27, 0, 2, 39, 40, -37, 34
12413568, 4198060, 1.00, 0.00, 0.00, 1948.35, 101333.85, 16.70, 17.25, 0, 2, 18, 40, -37, 34
12413632, 4198160, 1.00, 0.00, -0.00, 1948.46, 101332.64, 16.80, 17.21, 0, 2, 30, 44, -34, 34
12413696, 4198260, 1.00, -0.00, 0.00, 1948.71, 101329.71, 17.04, 17.17, 0, 2, 14, 45, -32, 34
12413760, 4198361, 1.00, -0.00, 0.00, 1948.49, 101327.11, 17.26, 17.16, 0, 2, 11, 46, -28, 34
12413824, 4198461, 1.00, -0.00, 0.00, 1948.60, 101330.88, 16.95, 17.15, 0, 2, 1, 45, -22, 34
12413888, 4198561, 1.00, -0.01, -0.00, 1948.21, 101326.78, 17.29, 17.11, 0, 2, 14, 44, -27, 34
12413952, 4198662, 1.00, -0.01, -0.00, 1948.35, 101329.42, 17.07, 17.12, 0, 2, 18, 40, -33, 34
12414016, 4198762, 1.00, -0.00, -0.00, 1948.43, 101328.47, 17.14, 17.12, 0, 2, 16, 41, -37, 34
12414080, 4198862, 1.00, 0.00, -0.00, 1948.30, 101332.85, 16.78, 17.12, 0, 2, 20, 43, -32, 34
12414144, 4198963, 1.00, 0.00, 0.00, 1948.35, 101330.61, 16.97, 17.10, 0, 2, 13, 47, -31, 34
12414208, 4199061, 1.00, 0.00, 0.00, 1948.19, 101334.08, 16.68, 17.06, 0, 2, 12, 40, -30, 34
12414272, 4199161, 1.00, 0.00, 0.00, 1948.43, 101327.58, 17.22, 17.03, 0, 2, 13, 41, -32, 34
12414336, 4199262, 1.00, 0.00, 0.00, 1948.32, 101331.13, 16.92, 17.05, 0, 2, 6, 41, -31, 34
12414400, 4199360, 1.00, -0.00, -0.01, 1948.32, 101326.72, 17.29, 17.04, 0, 2, 11, 39, -27, 34
12414464, 4199460, 1.00, -0.01, -0.01, 1948.46, 101329.41, 17.07, 17.04, 0, 2, 16, 37, -29, 34
12414528, 4199561, 1.00, -0.00, -0.00, 1948.65, 101330.39, 16.98, 17.01, 0, 2, 26, 52, -30, 34
12414592, 4199659, 1.00, -0.00, 0.00, 1948.08, 101329.99, 17.02, 16.99, 0, 2, 18, 47, -33, 34
12414656, 4199759, 1.00, -0.00, 0.01, 1948.10, 101327.39, 17.23, 17.00, 0, 2, 25, 46, -35, 34
12414720, 4199860, 1.00, -0.00, -0.00, 1947.91, 101326.71, 17.29, 17.00, 0, 2, 19, 47, -32, 34
12414784, 4199960, 1.00, -0.00, 0.00, 1948.35, 101323.85, 17.53, 17.02, 0, 2, 13, 49, -33, 34
12414848, 4200058, 1.00, 0.00, -0.00, 1947.99, 101326.58, 17.30, 17.06, 0, 2, 15, 47, -32, 34
12414912, 4200159, 1.00, -0.00, -0.00, 1948.19, 101325.85, 17.36, 17.09, 0, 2, 14, 37, -33, 34
12414976, 4200259, 1.00, -0.00, -0.00, 1947.86, 101328.30, 17.16, 17.12, 0, 2, 7, 42, -29, 34
12415040, 4200357, 1.00, -0.00, -0.00, 1948.21, 101327.08, 17.26, 17.13, 0, 2, 6, 43, -29, 34
12415104, 4200458, 1.00, -0.00, -0.00, 1948.02, 101327.82, 17.20, 17.13, 0, 2, 15, 44, -26, 34
12415168, 4200558, 1.00, -0.00, -0.00, 1948.08, 101325.86, 17.36, 17.14, 0, 2, 16, 44, -37, 34
12415232, 4200658, 1.00, -0.00, -0.00, 1947.99, 101329.22, 17.08, 17.14, 0, 2, 17, 45, -32, 34
12415296, 4200757, 1.00, -0.00, 0.00, 1947.86, 101327.72, 17.21, 17.14, 0, 2, 13, 48, -37, 34
12415360, 4200857, 1.00, -0.00, -0.00, 1948.05, 101320.82, 17.78, 17.15, 0, 2, 21, 44, -36, 34
12415424, 4200957, 1.00, -0.01, 0.00, 1948.27, 101326.61, 17.30, 17.20, 0, 2, 17, 47, -33, 34
12415488, 4201056, 1.00, -0.00, -0.00, 1948.19, 101329.67, 17.05, 17.21, 0, 2, 15, 49, -30, 34
12415552, 4201156, 1.00, -0.01, 0.00, 1947.72, 101329.49, 17.06, 17.23, 0, 2, 16, 43, -31, 34
12415616, 4201259, 1.00, -0.00, -0.00, 1947.69, 101320.32, 17.82, 17.22, 0, 2, 17, 39, -32, 34
12415680, 4201357, 1.00, 0.00, 0.00, 1948.21, 101329.72, 17.04, 17.27, 0, 2, 13, 41, -29, 34
12415744, 4201455, 1.00, -0.01, 0.00, 1947.83, 101321.19, 17.75, 17.26, 0, 2, 17, 38, -26, 34
12415808, 4201555, 1.00, 0.00, -0.00, 1947.78, 101327.55, 17.22, 17.29, 0, 2, 16, 42, -27, 34
12415872, 4201656, 1.00, -0.00, -0.00, 1947.64, 101318.14, 18.00, 17.30, 0, 2, 16, 44, -31, 34
12415936, 4201754, 1.00, -0.00, 0.00, 1947.86, 101328.30, 17.16, 17.35, 0, 2, 11, 47, -34, 34
12416000, 4201857, 1.00, -0.00, -0.00, 1948.13, 101323.33, 17.57, 17.35, 0, 2, 19, 45, -34, 34
12416064, 4201957, 1.00, -0.00, 0.00, 1947.72, 101323.02, 17.60, 17.36, 0, 2, 17, 51, -33, 34
12416128, 4202055, 1.00, -0.00, 0.00, 1947.88, 101324.88, 17.44, 17.36, 0, 2, 11, 48, -32, 34
12416192, 4202156, 1.00, -0.00, 0.00, 1947.45, 101324.16, 17.50, 17.37, 0, 2, 13, 43, -32, 34
12416256, 4202256, 0.99, -0.00, 0.00, 1947.69, 101329.42, 17.07, 17.38, 0, 2, 17, 41, -29, 34
12416320, 4202354, 1.00, 0.00, -0.00, 1947.91, 101327.88, 17.19, 17.37, 0, 2, 16, 42, -31, 34
12416384, 4202455, 1.00, -0.00, -0.00, 1947.88, 101324.28, 17.49, 17.37, 0, 2, 16, 39, -32, 34
12416448, 4202555, 1.00, -0.00, -0.00, 1947.64, 101324.02, 17.52, 17.39, 0, 2, 12, 45, -34, 34
12416512, 4202655, 1.00, -0.00, -0.00, 1947.39, 101325.80, 17.37, 17.39, 0, 2, 18, 43, -36, 34
12416576, 4202756, 1.00, -0.00, -0.00, 1947.58, 101323.86, 17.53, 17.41, 0, 2, 17, 39, -32, 34
12416640, 4202856, 1.00, 0.00, 0.00, 1947.75, 101322.78, 17.62, 17.42, 0, 2, 14, 46, -33, 34
12416704, 4202956, 1.00, 0.00, 0.00, 1947.39, 101323.74, 17.54, 17.42, 0, 2, 16, 43, -28, 34
12416768, 4203057, 1.00, -0.00, -0.00, 1947.34, 101321.55, 17.72, 17.43, 0, 2, 16, 42, -31, 34
12416832, 4203155, 1.00, -0.00, 0.00, 1947.58, 101324.75, 17.46, 17.46, 0, 2, 12, 44, -29, 34
12416896, 4203255, 1.00, -0.00, 0.00, 1947.67, 101326.14, 17.34, 17.48, 0, 2, 13, 41, -28, 34
12416960, 4203356, 1.00, -0.00, 0.00, 1947.69, 101327.96, 17.19, 17.46, 0, 2, 16, 40, -28, 34
12417024, 4203454, 1.00, -0.00, -0.00, 1947.47, 101329.22, 17.08, 17.46, 0, 2, 13, 43, -35, 34
12417088, 4203554, 1.00, -0.00, -0.00, 1947.50, 101324.28, 17.49, 17.43, 0, 2, 14, 45, -31, 34
12417152, 4203655, 1.00, -0.00, 0.00, 1947.47, 101325.69, 17.38, 17.44, 0, 2, 17, 47, -32, 34
12417216, 4203755, 0.99, -0.00, 0.00, 1947.47, 101326.28, 17.33, 17.41, 0, 2, 15, 45, -31, 34
12417280, 4203853, 1.00, -0.00, 0.00, 1947.25, 101324.88, 17.44, 17.42, 0, 2, 17, 44, -33, 34
12417344, 4203954, 0.99, -0.00, 0.00, 1947.31, 101324.11, 17.51, 17.41, 0, 2, 13, 40, -31, 34
12417408, 4204054, 1.00, -0.00, 0.00, 1947.47, 101327.16, 17.25, 17.41, 0, 2, 8, 38, -34, 34
12417472, 4204152, 1.00, 0.00, -0.00, 1947.17, 101333.24, 16.75, 17.40, 0, 2, 17, 42, -27, 34
12417536, 4204253, 1.00, -0.00, -0.00, 1947.23, 101330.71, 16.96, 17.36, 0, 2, 10, 44, -26, 34
12417600, 4204353, 1.00, -0.01, -0.00, 1947.25, 101324.00, 17.52, 17.36, 0, 2, 14, 40, -27, 34
12417664, 4204453, 1.00, -0.00, 0.00, 1947.28, 101328.17, 17.17, 17.37, 0, 2, 14, 41, -31, 34
12417728, 4204552, 1.00, -0.01, 0.00, 1947.28, 101323.17, 17.58, 17.36, 0, 2, 19, 45, -30, 34
12417792, 4204652, 0.99, 0.00, 0.00, 1947.12, 101326.66, 17.30, 17.36, 0, 2, 23, 42, -31, 34
12417856, 4204752, 1.00, 0.00, -0.00, 1947.06, 101326.80, 17.28, 17.36, 0, 2, 14, 40, -34, 34
12417920, 4204851, 1.00, 0.00, -0.00, 1947.03, 101323.21, 17.58, 17.35, 0, 2, 19, 43, -34, 34
12417984, 4204951, 1.00, 0.00, -0.00, 1947.09, 101325.10, 17.43, 17.34, 0, 2, 13, 43, -29, 34
12418048, 4205053, 1.00, -0.00, 0.00, 1947.03, 101328.78, 17.12, 17.34, 0, 2, 10, 45, -27, 34
12418112, 4205152, 1.00, -0.00, 0.00, 1946.98, 101329.27, 17.08, 17.31, 0, 2, 4, 43, -26, 34
12418176, 4205250, 1.00, -0.01, -0.00, 1947.09, 101325.10, 17.43, 17.29, 0, 2, 12, 43, -28, 34
12418240, 4205350, 1.00, -0.00, 0.00, 1947.06, 101327.10, 17.26, 17.29, 0, 2, 16, 38, -30, 34
12418304, 4205451, 1.00, -0.00, -0.00, 1946.93, 101322.38, 17.65, 17.30, 0, 2, 8, 40, -35, 34
12418368, 4205549, 1.00, 0.00, 0.00, 1947.01, 101326.67, 17.29, 17.33, 0, 2, 19, 43, -36, 34
12418432, 4205651, 1.00, -0.00, -0.00, 1947.12, 101328.13, 17.17, 17.32, 0, 2, 22, 41, -31, 34
12418496, 4205750, 1.00, 0.00, 0.01, 1947.03, 101329.08, 17.09, 17.31, 0, 2, 13, 39, -27, 34
12418560, 4205850, 1.00, -0.00, 0.00, 1947.09, 101330.39, 16.98, 17.29, 0, 2, 15, 44, -30, 34
12418624, 4205948, 1.00, -0.00, 0.00, 1947.01, 101327.55, 17.22, 17.27, 0, 2, 10, 37, -28, 34
12418688, 4206049, 1.00, -0.00, -0.00, 1946.84, 101328.10, 17.18, 17.26, 0, 2, 1, 44, -30, 34
12418752, 4206147, 1.00, -0.01, -0.00, 1947.09, 101335.99, 16.52, 17.25, 0, 2, 4, 41, -35, 34
12418816, 4206247, 1.00, 0.00, -0.00, 1946.73, 101331.94, 16.86, 17.24, 0, 2, 16, 45, -34, 34
12418880, 4206350, 1.00, -0.00, -0.00, 1946.49, 101328.14, 17.17, 17.24, 0, 2, 22, 51, -32, 34
12418944, 4206448, 1.00, -0.00, 0.00, 1946.84, 101330.14, 17.01, 17.22, 0, 2, 22, 48, -24, 34
12419008, 4206548, 1.00, -0.00, 0.00, 1946.49, 101327.25, 17.25, 17.21, 0, 2, 14, 49, -27, 34
12419072, 4206647, 1.00, -0.00, 0.01, 1946.76, 101328.75, 17.12, 17.19, 0, 2, 19, 41, -34, 34
12419136, 4206747, 1.00, -0.00, 0.00, 1946.68, 101327.41, 17.23, 17.18, 0, 2, 10, 42, -35, 34
12419200, 4206848, 1.00, 0.00, -0.00, 1946.68, 101328.58, 17.14, 17.18, 0, 2, 6, 43, -30, 34
12419264, 4206946, 1.00, -0.00, -0.00, 1946.62, 101331.71, 16.88, 17.16, 0, 2, 8, 42, -26, 34
12419328, 4207046, 1.00, -0.01, -0.00, 1946.73, 101331.35, 16.91, 17.13, 0, 2, 16, 45, -29, 34
12419392, 4207149, 1.00, -0.00, -0.00, 1946.57, 101324.24, 17.50, 17.12, 0, 2, 16, 44, -37, 34
12419456, 4207247, 1.00, -0.01, 0.00, 1946.57, 101328.94, 17.11, 17.14, 0, 2, 17, 46, -30, 34
12419520, 4207347, 1.00, 0.00, 0.00, 1946.54, 101332.10, 16.84, 17.13, 0, 2, 20, 39, -30, 34
12419584, 4207448, 1.00, -0.00, -0.00, 1946.35, 101327.85, 17.20, 17.11, 0, 2, 26, 41, -33, 34
12419648, 4207548, 1.00, -0.00, -0.00, 1946.46, 101321.61, 17.72, 17.08, 0, 2, 11, 45, -27, 34
12419712, 4207646, 1.00, 0.00, 0.00, 1946.49, 101320.21, 17.83, 17.10, 0, 2, 4, 44, -26, 34
12419776, 4207749, 1.00, -0.00, 0.00, 1946.16, 101329.44, 17.06, 17.14, 0, 2, 15, 48, -29, 34
12419840, 4207847, 1.00, -0.00, 0.00, 1946.73, 101328.11, 17.18, 17.14, 0, 2, 22, 43, -39, 34
12419904, 4207947, 1.00, -0.00, -0.00, 1946.76, 101327.28, 17.24, 17.15, 0, 2, 15, 41, -40, 34
12419968, 4208050, 1.00, 0.00, -0.00, 1946.18, 101323.91, 17.52, 17.15, 0, 2, 11, 39, -35, 34
12420032, 4208148, 1.00, 0.00, -0.00, 1946.27, 101326.77, 17.29, 17.16, 0, 2, 18, 47, -28, 34
12420096, 4208248, 1.00, 0.00, -0.00, 1946.35, 101323.14, 17.59, 17.20, 0, 2, 18, 45, -28, 34
12420160, 4208351, 1.00, -0.00, -0.00, 1946.27, 101320.89, 17.77, 17.24, 0, 2, 6, 45, -25, 34
12420224, 4208449, 1.00, -0.01, 0.00, 1946.57, 101324.83, 17.45, 17.27, 0, 2, 19, 43, -30, 34
12420288, 4208549, 1.00, -0.00, -0.00, 1946.18, 101322.74, 17.62, 17.29, 0, 2, 14, 37, -35, 34
12420352, 4208652, 1.00, -0.00, -0.00, 1946.18, 101323.91, 17.52, 17.31, 0, 2, 17, 39, -31, 34
12420416, 4208750, 1.00, 0.00, -0.00, 1946.24, 101325.82, 17.37, 17.33, 0, 2, 12, 45, -34, 34
12420480, 4208850, 1.00, -0.00, 0.00, 1946.18, 101325.67, 17.38, 17.34, 0, 2, 15, 45, -26, 34
12420544, 4208953, 1.00, 0.00, 0.00, 1946.16, 101324.74, 17.46, 17.35, 0, 2, 14, 46, -21, 34
12420608, 4209053, 1.00, -0.01, 0.00, 1946.02, 101324.44, 17.48, 17.38, 0, 2, 8, 46, -27, 34
12420672, 4209154, 1.00, -0.01, 0.00, 1946.32, 101324.85, 17.45, 17.41, 0, 2, 17, 39, -30, 34
12420736, 4209254, 1.00, -0.00, 0.00, 1946.07, 101326.35, 17.32, 17.40, 0, 2, 20, 38, -30, 34
12420800, 4209354, 1.00, -0.00, -0.00, 1946.21, 101328.67, 17.13, 17.41, 0, 2, 15, 48, -34, 34
12420864, 4209455, 1.00, 0.00, -0.00, 1946.13, 101325.58, 17.39, 17.43, 0, 2, 15, 51, -35, 34
12420928, 4209553, 1.00, 0.00, 0.00, 1946.07, 101323.69, 17.54, 17.44, 0, 2, 14, 51, -28, 34
12420992, 4209653, 1.00, -0.00, 0.00, 1946.13, 101323.82, 17.53, 17.43, 0, 2, 19, 45, -32, 34
12421056, 4209754, 1.00, -0.01, 0.00, 1946.10, 101321.69, 17.71, 17.41, 0, 2, 15, 39, -32, 34
12421120, 4209854, 0.99, 0.00, 0.00, 1946.10, 101322.28, 17.66, 17.45, 0, 2, 11, 38, -34, 34
12421184, 4209952, 1.00, -0.00, -0.00, 1945.94, 101324.53, 17.47, 17.47, 0, 2, 12, 41, -30, 34
12421248, 4210053, 1.00, 0.00, -0.00, 1946.10, 101326.11, 17.34, 17.48, 0, 2, 13, 46, -29, 34
12421312, 4210153, 1.00, -0.00, -0.00, 1945.80, 101326.60, 17.30, 17.47, 0, 2, 12, 43, -28, 34
12421376, 4210251, 1.00, -0.01, 0.00, 1945.75, 101324.71, 17.46, 17.47, 0, 2, 15, 47, -34, 34
12421440, 4210352, 1.00, -0.00, 0.00, 1945.72, 101321.41, 17.73, 17.47, 0, 2, 18, 47, -33, 34
12421504, 4210452, 1.00, 0.00, 0.00, 1945.33, 101322.60, 17.63, 17.47, 0, 2, 13, 40, -32, 34
12421568, 4210552, 1.00, -0.00, 0.00, 1945.53, 101323.05, 17.60, 17.47, 0, 2, 6, 32, -32, 34
12421632, 4210651, 1.00, -0.00, -0.00, 1945.66, 101325.99, 17.35, 17.47, 0, 2, 17, 41, -25, 34
12421696, 4210751, 1.00, 0.00, 0.00, 1945.77, 101327.11, 17.26, 17.46, 0, 2, 19, 39, -23, 34
12421760, 4210851, 1.00, -0.01, -0.00, 1945.42, 101326.00, 17.35, 17.46, 0, 2, 14, 45, -23, 34
12421824, 4210952, 1.00, -0.00, 0.00, 1945.44, 101328.14, 17.17, 17.46, 0, 2, 12, 45, -29, 34
12421888, 4211050, 1.00, -0.00, 0.00, 1945.69, 101324.27, 17.49, 17.44, 0, 2, 12, 48, -33, 34
12421952, 4211152, 1.00, -0.00, -0.00, 1945.31, 101323.42, 17.56, 17.44, 0, 2, 15, 43, -37, 34
12422016, 4211253, 1.00, 0.00, -0.00, 1945.31, 101327.25, 17.25, 17.45, 0, 2, 12, 42, -31, 34
12422080, 4211351, 1.00, 0.00, -0.00, 1945.64, 101328.27, 17.16, 17.45, 0, 2, 16, 43, -31, 34
12422144, 4211451, 1.00, -0.00, 0.00, 1945.44, 101320.78, 17.79, 17.45, 0, 2, 15, 46, -29, 34
12422208, 4211552, 0.99, -0.00, 0.00, 1945.39, 101324.47, 17.48, 17.47, 0, 2, 6, 47, -24, 34
12422272, 4211650, 1.00, -0.01, 0.00, 1945.53, 101327.75, 17.20, 17.46, 0, 2, 12, 44, -30, 34
12422336, 4211752, 1.00, -0.00, -0.00, 1945.17, 101323.69, 17.54, 17.45, 0, 2, 18, 42, -27, 34
12422400, 4211853, 1.00, -0.00, -0.00, 1945.28, 101324.53, 17.47, 17.44, 0, 2, 16, 43, -31, 34
12422464, 4211953, 1.00, -0.00, -0.00, 1945.20, 101324.92, 17.44, 17.43, 0, 2, 11, 50, -40, 34
12422528, 4212051, 1.00, 0.00, -0.00, 1945.33, 101326.42, 17.32, 17.43, 0, 2, 21, 51, -32, 34
12422592, 4212152, 1.00, -0.00, 0.00, 1945.47, 101320.25, 17.83, 17.43, 0, 2, 22, 45, -26, 34
12422656, 4212250, 1.00, -0.00, 0.00, 1945.36, 101327.96, 17.19, 17.45, 0, 2, 6, 43, -24, 34
12422720, 4212350, 1.00, -0.00, 0.00, 1945.33, 101324.66, 17.46, 17.44, 0, 2, 12, 35, -30, 34
12422784, 4212451, 1.00, 0.00, 0.00, 1945.22, 101325.88, 17.36, 17.43, 0, 2, 15, 39, -29, 34
12422848, 4212551, 1.00, -0.00, -0.01, 1945.11, 101324.44, 17.48, 17.41, 0, 2, 13, 39, -31, 34
12422912, 4212652, 1.00, -0.00, -0.00, 1945.42, 101322.19, 17.67, 17.41, 0, 2, 10, 50, -34, 34
12422976, 4212750, 1.00, 0.00, -0.00, 1945.01, 101325.07, 17.43, 17.42, 0, 2, 19, 57, -29, 34
12423040, 4212850, 1.00, -0.01, 0.00, 1945.09, 101322.33, 17.66, 17.43, 0, 2, 19, 50, -33, 34
12423104, 4212951, 1.00, -0.00, 0.01, 1945.20, 101331.39, 16.90, 17.45, 0, 2, 20, 40, -36, 34
12423168, 4213049, 1.00, -0.00, 0.00, 1945.09, 101326.74, 17.29, 17.43, 0, 2, 14, 41, -33, 34
12423232, 4213149, 1.00, -0.00, -0.00, 1944.95, 101324.05, 17.51, 17.42, 0, 2, 12, 38, -30, 34
12423296, 4213252, 1.00, -0.00, -0.00, 1944.84, 101326.17, 17.34, 17.42, 0, 2, 16, 36, -30, 34
12423360, 4213350, 1.00, -0.00, -0.00, 1944.87, 101319.75, 17.87, 17.43, 0, 2, 8, 47, -27, 34
12423424, 4213452, 1.00, -0.01, -0.00, 1944.95, 101325.22, 17.42, 17.46, 0, 2, 15, 49, -29, 34
12423488, 4213555, 1.00, -0.00, 0.00, 1944.87, 101321.82, 17.70, 17.44, 0, 2, 17, 53, -33, 34
12423552, 4213653, 1.00, -0.00, 0.00, 1944.95, 101321.41, 17.73, 17.45, 0, 2, 16, 45, -35, 34
12423616, 4213755, 1.00, -0.01, 0.00, 1944.84, 101321.75, 17.70, 17.48, 0, 2, 17, 40, -38, 34
12423680, 4213858, 1.00, 0.00, 0.00, 1944.95, 101323.17, 17.58, 17.49, 0, 2, 13, 40, -33, 34
12423744, 4213956, 1.00, 0.00, 0.00, 1944.76, 101323.35, 17.57, 17.49, 0, 2, 11, 42, -27, 34
12423808, 4214056, 1.00, -0.00, -0.00, 1944.48, 101325.38, 17.40, 17.50, 0, 2, 10, 44, -28, 34
12423872, 4214157, 1.00, 0.00, 0.00, 1944.76, 101325.41, 17.40, 17.50, 0, 2, 13, 43, -30, 34
12423936, 4214257, 1.00, -0.00, -0.00, 1944.79, 101321.94, 17.69, 17.48, 0, 2, 17, 41, -34, 34
12424000, 4214355, 1.00, -0.01, -0.00, 1944.90, 101326.30, 17.33, 17.51, 0, 2, 20, 45, -38, 34
12424064, 4214456, 1.00, 0.00, -0.00, 1944.48, 101321.55, 17.72, 17.50, 0, 2, 20, 45, -34, 34
12424128, 4214556, 1.00, 0.00, 0.00, 1944.59, 101327.96, 17.19, 17.52, 0, 2, 22, 44, -36, 34
12424192, 4214657, 1.00, -0.00, 0.00, 1944.70, 101325.57, 17.39, 17.50, 0, 2, 14, 41, -31, 34
12424256, 4214757, 1.00, -0.00, 0.01, 1944.48, 101327.14, 17.25, 17.49, 0, 2, 14, 44, -23, 34
12424320, 4214857, 1.00, -0.00, 0.00, 1944.87, 101329.17, 17.09, 17.48, 0, 2, 4, 46, -24, 34
12424384, 4214958, 1.00, -0.01, -0.00, 1944.59, 101324.72, 17.46, 17.45, 0, 2, 11, 42, -32, 34
12424448, 4215056, 1.00, -0.01, -0.00, 1944.70, 101326.14, 17.34, 17.48, 0, 2, 7, 36, -37, 34
12424512, 4215158, 1.00, -0.00, -0.00, 1944.48, 101329.49, 17.06, 17.48, 0, 2, 20, 42, -35, 34
12424576, 4215259, 1.00, 0.00, 0.00, 1944.40, 101329.00, 17.10, 17.46, 0, 2, 17, 47, -36, 34
12424640, 4215357, 1.00, 0.00, 0.00, 1944.18, 101328.50, 17.14, 17.45, 0, 2, 21, 50, -35, 34
12424704, 4215459, 1.00, 0.00, 0.01, 1944.35, 101329.75, 17.04, 17.41, 0, 2, 14, 50, -29, 34
12424768, 4215560, 1.00, -0.00, 0.00, 1944.35, 101325.05, 17.43, 17.39, 0, 2, 9, 39, -30, 34
12424832, 4215658, 1.00, -0.00, 0.00, 1944.18, 101323.50, 17.56, 17.38, 0, 2, 11, 39, -28, 34
12424896, 4215760, 1.00, -0.00, 0.00, 1944.57, 101322.91, 17.61, 17.37, 0, 2, 9, 40, -34, 34
12424960, 4215861, 1.00, -0.00, -0.01, 1944.43, 101326.11, 17.34, 17.37, 0, 2, 17, 43, -33, 34
12425024, 4215959, 1.00, -0.00, -0.00, 1944.21, 101328.27, 17.16, 17.35, 0, 2, 14, 49, -31, 34
12425088, 4216061, 1.00, 0.00, 0.00, 1944.32, 101325.58, 17.39, 17.33, 0, 2, 13, 48, -35, 34
12425152, 4216162, 1.00, -0.00, 0.01, 1943.99, 101321.02, 17.76, 17.33, 0, 2, 14, 48, -32, 34
12425216, 4216262, 1.00, -0.00, 0.01, 1944.29, 101326.11, 17.34, 17.35, 0, 2, 14, 43, -32, 34
12425280, 4216363, 1.00, 0.00, -0.00, 1944.68, 101331.97, 16.85, 17.33, 0, 2, 7, 35, -31, 34
12425344, 4216461, 1.00, -0.00, -0.00, 1944.15, 101328.14, 17.17, 17.31, 0, 2, 11, 38, -28, 34
12425408, 4216561, 1.00, -0.00, -0.01, 1944.13, 101329.27, 17.08, 17.28, 0, 2, 13, 47, -27, 34
12425472, 4216659, 1.00, -0.00, -0.00, 1944.10, 101324.21, 17.50, 17.28, 0, 2, 19, 50, -29, 34
12425536, 4216760, 1.00, -0.00, 0.00, 1944.10, 101321.27, 17.74, 17.28, 0, 2, 21, 51, -34, 34
12425600, 4216860, 1.00, -0.00, 0.00, 1944.32, 101322.35, 17.65, 17.31, 0, 2, 23, 44, -33, 34
12425664, 4216961, 1.00, 0.00, 0.00, 1944.18, 101323.21, 17.58, 17.34, 0, 2, 18, 47, -38, 34
12425728, 4217061, 1.00, 0.00, 0.00, 1943.72, 101323.32, 17.57, 17.34, 0, 2, 15, 43, -33, 34
12425792, 4217161, 0.99, 0.00, -0.00, 1943.91, 101324.35, 17.49, 17.35, 0, 2, 14, 40, -29, 34
12425856, 4217262, 1.00, -0.00, 0.00, 1944.15, 101322.27, 17.66, 17.38, 0, 2, 14, 42, -26, 34
12425920, 4217360, 1.00, -0.00, 0.00, 1943.99, 101323.96, 17.52, 17.40, 0, 2, 14, 47, -25, 34
12425984, 4217462, 0.99, -0.00, -0.00, 1943.96, 101323.32, 17.57, 17.42, 0, 2, 13, 42, -33, 34
12426048, 4217563, 1.00, -0.00, 0.00, 1943.91, 101319.94, 17.85, 17.45, 0, 2, 19, 43, -35, 34
12426112, 4217661, 1.00, -0.00, 0.00, 1944.02, 101320.78, 17.79, 17.47, 0, 2, 26, 46, -39, 34
12426176, 4217763, 1.00, 0.00, -0.00, 1943.91, 101319.64, 17.88, 17.48, 0, 2, 21, 41, -35, 34
12426240, 4217864, 1.00, 0.00, 0.00, 1943.69, 101316.52, 18.14, 17.50, 0, 2, 12, 45, -35, 34
12426304, 4217962, 1.00, 0.00, 0.00, 1943.55, 101322.66, 17.63, 17.54, 0, 2, 12, 46, -27, 34
12426368, 4218064, 1.00, -0.00, 0.00, 1943.58, 101318.91, 17.94, 17.56, 0, 2, 12, 45, -26, 34
12426432, 4218167, 1.00, -0.00, 0.00, 1943.74, 101319.25, 17.91, 17.59, 0, 2, 6, 44, -25, 34
12426496, 4218265, 1.00, -0.01, -0.00, 1943.91, 101323.47, 17.56, 17.59, 0, 2, 13, 42, -34, 34
12426560, 4218365, 1.00, -0.00, -0.00, 1943.99, 101320.14, 17.84, 17.61, 0, 2, 16, 40, -39, 34
12426624, 4218466, 1.00, -0.00, -0.00, 1943.61, 101322.49, 17.64, 17.65, 0, 2, 15, 47, -35, 34
12426688, 4218566, 1.00, 0.00, 0.00, 1943.85, 101320.67, 17.79, 17.68, 0, 2, 15, 47, -25, 34
12426752, 4218664, 1.00, 0.00, 0.01, 1943.61, 101318.38, 17.98, 17.71, 0, 2, 18, 48, -26, 34
12426816, 4218765, 1.00, -0.00, 0.01, 1943.66, 101323.19, 17.58, 17.74, 0, 2, 13, 43, -30, 34
12426880, 4218865, 1.00, 0.00, 0.00, 1943.52, 101321.13, 17.76, 17.73, 0, 2, 11, 41, -23, 34
12426944, 4218966, 1.00, -0.00, 0.00, 1943.72, 101329.49, 17.06, 17.74, 0, 2, 5, 40, -29, 34
12427008, 4219066, 1.00, -0.00, -0.00, 1943.55, 101321.49, 17.72, 17.71, 0, 2, 15, 35, -36, 34
12427072, 4219166, 1.00, -0.00, -0.00, 1943.41, 101320.57, 17.80, 17.72, 0, 2, 18, 49, -32, 34
12427136, 4219267, 1.00, 0.00, 0.00, 1943.39, 101321.10, 17.76, 17.73, 0, 2, 12, 52, -32, 34
12427200, 4219365, 1.00, -0.00, 0.00, 1943.80, 101321.72, 17.71, 17.74, 0, 2, 17, 45, -25, 34
12427264, 4219465, 1.00, -0.00, 0.00, 1943.69, 101320.92, 17.77, 17.75, 0, 2, 14, 42, -30, 34
12427328, 4219566, 1.00, -0.00, 0.00, 1943.47, 101322.77, 17.62, 17.76, 0, 2, 14, 35, -29, 34
12427392, 4219666, 1.00, 0.00, -0.00, 1943.41, 101325.57, 17.39, 17.74, 0, 2, 9, 36, -29, 34
12427456, 4219764, 1.00, -0.00, -0.00, 1943.63, 101329.60, 17.05, 17.72, 0, 2, 13, 35, -31, 34
12427520, 4219865, 1.00, 0.00, -0.00, 1943.44, 101330.66, 16.96, 17.68, 0, 2, 14, 44, -28, 34
12427584, 4219965, 1.00, -0.00, 0.00, 1943.44, 101325.07, 17.43, 17.62, 0, 2, 12, 47, -31, 34
12427648, 4220063, 1.00, -0.00, 0.00, 1943.22, 101325.44, 17.40, 17.61, 0, 2, 17, 52, -29, 34
12427712, 4220164, 1.00, -0.00, 0.00, 1943.36, 101326.92, 17.27, 17.59, 0, 2, 19, 43, -31, 34
12427776, 4220264, 1.00, 0.00, 0.00, 1943.33, 101323.63, 17.55, 17.56, 0, 2, 8, 36, -35, 34
12427840, 4220364, 1.00, -0.00, -0.00, 1943.11, 101328.72, 17.12, 17.55, 0, 2, 7, 41, -28, 34
12427904, 4220463, 1.00, 0.00, -0.00, 1943.33, 101326.86, 17.28, 17.52, 0, 2, 13, 43, -27, 34
12427968, 4220563, 1.00, -0.00, -0.00, 1943.17, 101323.57, 17.55, 17.50, 0, 2, 15, 48, -27, 34
12428032, 4220663, 1.00, -0.01, -0.00, 1943.30, 101326.82, 17.28, 17.49, 0, 2, 18, 52, -25, 34
12428096, 4220762, 1.00, -0.00, 0.00, 1943.33, 101327.46, 17.23, 17.45, 0, 2, 17, 48, -32, 34
12428160, 4220862, 1.00, -0.00, 0.00, 1943.14, 101323.77, 17.54, 17.44, 0, 2, 15, 41, -31, 34
12428224, 4220964, 1.00, -0.00, 0.00, 1943.14, 101323.49, 17.56, 17.42, 0, 2, 15, 34, -36, 34
12428288, 4221065, 1.00, 0.00, -0.00, 1943.14, 101329.07, 17.10, 17.45, 0, 2, 12, 41, -32, 34
12428352, 4221163, 1.00, -0.00, -0.00, 1943.41, 101320.86, 17.78, 17.42, 0, 2, 17, 48, -29, 34
12428416, 4221265, 1.00, -0.00, 0.00, 1943.44, 101323.00, 17.60, 17.42, 0, 2, 14, 51, -31, 34
12428480, 4221366, 1.00, -0.00, 0.01, 1942.98, 101325.47, 17.39, 17.41, 0, 2, 9, 41, -26, 34
12428544, 4221462, 0.99, -0.01, 0.00, 1943.30, 101327.69, 17.21, 17.39, 0, 2, 6, 38, -27, 34
12428608, 4221562, 1.00, 0.00, 0.00, 1943.03, 101327.66, 17.21, 17.37, 0, 2, 9, 35, -35, 34
12428672, 4221663, 1.00, -0.01, -0.00, 1943.09, 101326.89, 17.28, 17.35, 0, 2, 8, 38, -28, 34
12428736, 4221763, 1.00, 0.00, -0.01, 1943.03, 101321.49, 17.72, 17.34, 0, 2, 14, 39, -28, 34
12428800, 4221861, 1.00, -0.00, -0.00, 1942.92, 101325.36, 17.40, 17.37, 0, 2, 18, 45, -22, 34
12428864, 4221962, 1.00, -0.00, -0.00, 1943.06, 101328.02, 17.18, 17.40, 0, 2, 5, 47, -29, 34
12428928, 4222062, 1.00, -0.01, 0.00, 1943.03, 101326.49, 17.31, 17.38, 0, 2, 15, 44, -32, 34
12428992, 4222160, 1.00, -0.01, 0.00, 1942.89, 101329.69, 17.04, 17.38, 0, 2, 22, 47, -37, 34
12429056, 4222261, 0.99, 0.00, -0.00, 1942.87, 101329.03, 17.10, 17.37, 0, 2, 20, 40, -39, 34
12429120, 4222361, 1.00, -0.00, 0.00, 1942.87, 101319.63, 17.88, 17.34, 0, 2, 16, 44, -33, 34
12429184, 4222461, 1.00, 0.00, 0.00, 1942.84, 101329.86, 17.03, 17.38, 0, 2, 12, 45, -32, 34
12429248, 4222560, 1.00, -0.00, -0.00, 1942.81, 101327.46, 17.23, 17.37, 0, 2, 12, 41, -24, 34
12429312, 4222660, 1.00, -0.01, -0.00, 1942.73, 101327.83, 17.20, 17.35, 0, 2, 3, 43, -23, 34
12429376, 4222760, 1.00, -0.01, 0.00, 1942.76, 101328.22, 17.16, 17.35, 0, 2, 11, 46, -31, 34
12429440, 4222859, 1.00, -0.01, -0.00, 1942.84, 101323.99, 17.52, 17.35, 0, 2, 19, 42, -33, 34
12429504, 4222959, 1.00, -0.00, -0.00, 1942.65, 101330.30, 16.99, 17.35, 0, 2, 19, 43, -42, 34
12429568, 4223062, 1.00, 0.00, -0.00, 1942.59, 101330.74, 16.96, 17.32, 0, 2, 14, 43, -31, 34
12429632, 4223160, 1.00, -0.00, -0.00, 1942.37, 101329.08, 17.09, 17.31, 0, 2, 14, 46, -29, 34
12429696, 4223260, 1.00, 0.00, -0.00, 1942.40, 101329.75, 17.04, 17.28, 0, 2, 17, 45, -17, 34
12429760, 4223361, 1.00, -0.00, 0.00, 1942.32, 101334.85, 16.61, 17.25, 0, 2, 20, 45, -26, 34
12429824, 4223461, 1.00, -0.00, 0.00, 1942.59, 101331.63, 16.88, 17.21, 0, 2, 13, 42, -34, 34
12429888, 4223559, 1.00, -0.01, 0.00, 1942.51, 101330.86, 16.95, 17.19, 0, 2, 14, 36, -24, 34
12429952, 4223662, 1.00, -0.00, -0.00, 1942.07, 101326.35, 17.32, 17.18, 0, 2, 10, 37, -34, 34
12430016, 4223760, 1.00, 0.01, 0.00, 1942.54, 101331.22, 16.92, 17.18, 0, 2, 18, 36, -26, 34
12430080, 4223860, 1.00, -0.01, 0.00, 1942.70, 101330.11, 17.01, 17.14, 0, 2, 11, 39, -26, 34
12430144, 4223963, 1.00, 0.00, -0.00, 1942.59, 101335.16, 16.59, 17.12, 0, 2, 16, 36, -23, 34
12430208, 4224063, 1.00, -0.01, 0.00, 1942.21, 101334.32, 16.66, 17.09, 0, 2, 14, 35, -15, 34
12430272, 4224163, 1.00, -0.01, -0.00, 1942.26, 101331.50, 16.89, 17.06, 0, 2, 11, 27, -15, 34
12430336, 4224264, 1.00, -0.00, -0.00, 1942.15, 101335.66, 16.55, 17.05, 0, 2, 15, 19, -14, 34
12430400, 4224364, 1.00, -0.00, -0.00, 1942.10, 101328.75, 17.12, 17.02, 0, 2, 8, 18, -3, 34
12430464, 4224464, 1.00, -0.00, -0.01, 1942.02, 101330.94, 16.94, 16.99, 0, 2, 8, 18, 4, 34
12430528, 4224565, 1.00, -0.00, -0.00, 1942.02, 101327.99, 17.19, 16.98, 0, 2, 10, 22, 14, 34
12430592, 4224665, 1.00, -0.01, 0.00, 1942.18, 101335.72, 16.54, 16.98, 0, 2, -65, 13, 19, 34
12430656, 4224765, 0.99, -0.04, -0.03, 1942.15, 101330.36, 16.99, 16.95, 0, 2, -64, 18, -1, 34
12430720, 4224864, 1.00, -0.02, -0.00, 1942.21, 101332.55, 16.81, 16.94, 0, 2, 7, 20, -17, 34
12430784, 4224964, 1.00, -0.02, -0.02, 1942.04, 101338.05, 16.35, 16.90, 0, 2, 18, 31, -45, 34
12430848, 4225067, 1.00, -0.02, -0.03, 1942.13, 101327.36, 17.24, 16.87, 0, 2, 35, 50, -56, 34
12430912, 4225165, 1.00, -0.01, -0.02, 1942.04, 101322.47, 17.65, 16.88, 0, 2, 57, 68, -47, 34
12430976, 4225263, 1.00, -0.01, -0.01, 1942.10, 101328.75, 17.12, 16.91, 0, 2, 19, 77, -41, 34
12431040, 4225363, 1.00, -0.02, -0.01, 1942.18, 101331.02, 16.93, 16.92, 0, 2, 23, 72, -41, 34
12431104, 4225464, 1.00, -0.01, 0.01, 1941.96, 101330.24, 17.00, 16.93, 0, 2, 62, 65, -44, 34
12431168, 4225562, 1.00, -0.01, 0.01, 1941.91, 101332.46, 16.81, 16.94, 0, 2, 70, 40, -46, 34
12431232, 4225662, 1.00, -0.01, -0.01, 1941.77, 101332.14, 16.84, 16.93, 0, 2, 49, 26, -42, 34
12431296, 4225763, 1.00, -0.00, -0.02, 1941.66, 101329.55, 17.06, 16.91, 0, 2, -3, 25, -28, 34
12431360, 4225863, 1.00, -0.00, -0.02, 1941.66, 101328.67, 17.13, 16.91, 0, 2, 23, 35, -15, 34
12431424, 4225961, 1.00, -0.01, -0.02, 1941.96, 101329.64, 17.05, 16.92, 0, 2, 9, 43, -4, 34
12431488, 4226062, 1.00, -0.03, -0.01, 1941.74, 101328.25, 17.16, 16.94, 0, 2, -14, 52, -8, 34
12431552, 4226162, 1.00, -0.03, -0.01, 1942.04, 101331.88, 16.86, 16.97, 0, 2, -3, 49, -34, 34
12431616, 4226263, 1.00, -0.02, -0.01, 1941.52, 101330.08, 17.01, 16.97, 0, 2, 30, 48, -49, 34
12431680, 4226365, 1.00, -0.01, -0.01, 1941.49, 101328.55, 17.14, 16.99, 0, 2, 59, 46, -57, 34
12431744, 4226465, 1.00, -0.00, -0.01, 1941.71, 101326.44, 17.32, 16.99, 0, 2, 12, 48, -43, 34
12431808, 4226566, 1.00, -0.00, -0.01, 1941.60, 101328.82, 17.12, 17.01, 0, 2, 24, 52, -28, 34
12431872, 4226664, 1.00, -0.01, -0.00, 1941.58, 101325.19, 17.42, 17.01, 0, 2, 13, 48, -20, 34
12431936, 4226766, 1.00, -0.02, -0.00, 1941.33, 101323.47, 17.56, 17.05, 0, 2, 4, 43, -15, 34
12432000, 4226867, 1.00, -0.03, -0.00, 1941.58, 101329.32, 17.07, 17.08, 0, 2, -3, 33, -24, 34
12432064, 4226965, 1.00, -0.02, -0.01, 1941.30, 101331.64, 16.88, 17.09, 0, 2, 12, 29, -31, 34
12432128, 4227067, 1.00, -0.02, -0.02, 1941.44, 101327.55, 17.22, 17.12, 0, 2, 20, 35, -41, 34
12432192, 4227170, 1.00, -0.01, -0.02, 1941.27, 101332.17, 16.84, 17.12, 0, 2, 14, 53, -32, 34
12432256, 4227268, 1.00, -0.01, -0.01, 1941.36, 101329.13, 17.09, 17.08, 0, 2, 33, 56, -35, 34
12432320, 4227368, 1.00, -0.01, -0.01, 1941.44, 101325.21, 17.42, 17.08, 0, 2, 20, 59, -32, 34
12432384, 4227469, 1.00, -0.01, 0.00, 1941.36, 101330.60, 16.97, 17.10, 0, 2, 17, 49, -32, 34
12432448, 4227569, 0.99, -0.02, 0.00, 1941.03, 101325.44, 17.40, 17.10, 0, 2, 18, 32, -36, 34
12432512, 4227667, 1.00, -0.01, -0.00, 1941.41, 101329.85, 17.03, 17.13, 0, 2, 10, 32, -31, 34
12432576, 4227768, 1.00, -0.01, -0.01, 1941.44, 101325.78, 17.37, 17.14, 0, 2, 4, 26, -26, 34
12432640, 4227868, 1.00, -0.01, -0.02, 1941.14, 101328.36, 17.15, 17.15, 0, 2, 5, 34, -22, 34
12432704, 4227969, 1.00, -0.02, -0.02, 1940.81, 101331.72, 16.87, 17.15, 0, 2, 7, 50, -25, 34
12432768, 4228069, 1.00, -0.02, -0.01, 1941.11, 101327.71, 17.21, 17.14, 0, 2, 16, 51, -26, 34
12432832, 4228169, 1.00, -0.03, -0.00, 1940.92, 101327.27, 17.24, 17.15, 0, 2, 28, 54, -40, 34
12432896, 4228270, 1.00, -0.01, 0.00, 1941.25, 101322.42, 17.65, 17.17, 0, 2, 32, 47, -42, 34
12432960, 4228368, 1.00, -0.01, -0.00, 1940.95, 101319.69, 17.88, 17.20, 0, 2, 20, 36, -39, 34
12433024, 4228470, 1.00, -0.00, -0.01, 1941.00, 101332.74, 16.79, 17.24, 0, 2, 9, 38, -33, 34
12433088, 4228571, 1.00, -0.01, -0.01, 1941.14, 101326.30, 17.33, 17.21, 0, 2, 2, 41, -16, 34
12433152, 4228669, 1.00, -0.01, -0.01, 1940.78, 101320.77, 17.79, 17.22, 0, 2, 3, 44, -20, 34
12433216, 4228771, 1.00, -0.02, -0.01, 1940.64, 101323.42, 17.56, 17.24, 0, 2, 9, 47, -23, 34
12433280, 4228874, 1.00, -0.03, -0.01, 1940.86, 101326.57, 17.30, 17.24, 0, 2, 22, 47, -41, 34
12433344, 4228972, 1.00, -0.01, -0.01, 1940.81, 101326.44, 17.32, 17.25, 0, 2, 29, 50, -50, 34
12433408, 4229072, 1.00, -0.01, -0.01, 1940.73, 101323.60, 17.55, 17.27, 0, 2, 21, 40, -44, 34
12433472, 4229175, 1.00, -0.01, -0.01, 1940.70, 101325.00, 17.43, 17.29, 0, 2, 13, 47, -38, 34
12433536, 4229273, 1.00, -0.00, -0.01, 1940.81, 101321.74, 17.71, 17.32, 0, 2, 4, 46, -21, 34
12433600, 4229373, 0.99, -0.01, -0.00, 1940.67, 101323.17, 17.58, 17.35, 0, 2, 12, 52, -22, 34
12433664, 4229474, 1.00, -0.02, -0.00, 1940.48, 101327.13, 17.26, 17.36, 0, 2, 11, 38, -24, 34
12433728, 4229574, 1.00, -0.02, -0.01, 1940.73, 101324.17, 17.50, 17.37, 0, 2, 16, 36, -30, 34
12433792, 4229675, 1.00, -0.01, -0.01, 1940.45, 101321.47, 17.73, 17.38, 0, 2, 9, 31, -32, 34
12433856, 4229773, 1.00, -0.01, -0.01, 1940.56, 101322.64, 17.63, 17.41, 0, 2, 17, 41, -38, 34
12433920, 4229873, 1.00, -0.01, -0.01, 1940.31, 101322.66, 17.63, 17.42, 0, 2, 15, 55, -33, 34
12433984, 4229974, 1.00, -0.01, -0.01, 1940.40, 101324.00, 17.52, 17.45, 0, 2, 17, 56, -26, 34
12434048, 4230072, 1.00, -0.01, -0.01, 1940.67, 101322.30, 17.66, 17.48, 0, 2, 20, 53, -31, 34
12434112, 4230172, 1.00, -0.02, -0.00, 1940.67, 101322.30, 17.66, 17.50, 0, 2, 22, 43, -35, 34
12434176, 4230275, 1.00, -0.01, -0.00, 1940.48, 101325.94, 17.35, 17.52, 0, 2, 15, 36, -36, 34
12434240, 4230373, 1.00, -0.01, -0.01, 1940.40, 101331.07, 16.93, 17.51, 0, 2, 20, 36, -34, 34
12434304, 4230471, 1.00, -0.01, -0.01, 1940.56, 101326.46, 17.31, 17.46, 0, 2, 12, 41, -31, 34
12434368, 4230572, 1.00, -0.01, -0.01, 1940.31, 101325.60, 17.38, 17.49, 0, 2, 12, 48, -28, 34
12434432, 4230672, 1.00, -0.01, -0.01, 1940.07, 101320.64, 17.80, 17.49, 0, 2, 12, 42, -26, 34
12434496, 4230770, 1.00, -0.02, -0.01, 1940.09, 101325.99, 17.35, 17.49, 0, 2, 6, 47, -28, 34
12434560, 4230873, 1.00, -0.02, -0.01, 1940.01, 101323.13, 17.59, 17.48, 0, 2, 14, 49, -38, 34
12434624, 4230973, 1.00, -0.02, -0.01, 1939.98, 101322.49, 17.64, 17.49, 0, 2, 31, 40, -43, 34
12434688, 4231073, 1.00, -0.01, -0.01, 1940.12, 101320.75, 17.79, 17.51, 0, 2, 20, 48, -41, 34
12434752, 4231176, 1.00, -0.01, -0.01, 1939.98, 101320.42, 17.81, 17.52, 0, 2, 18, 46, -37, 34
12434816, 4231276, 1.00, -0.00, -0.01, 1940.04, 101323.82, 17.53, 17.54, 0, 2, 11, 43, -29, 34
12434880, 4231376, 1.00, -0.01, -0.01, 1939.90, 101319.96, 17.85, 17.53, 0, 2, 19, 43, -21, 34
12434944, 4231477, 1.00, -0.01, -0.01, 1939.96, 101316.25, 18.16, 17.55, 0, 2, 8, 42, -23, 34
12435008, 4231577, 1.00, -0.01, -0.00, 1940.04, 101323.24, 17.58, 17.59, 0, 2, 13, 40, -26, 34
12435072, 4231677, 1.00, -0.01, -0.01, 1939.93, 101326.19, 17.33, 17.60, 0, 2, 19, 39, -32, 34
12435136, 4231776, 1.00, -0.01, -0.01, 1939.79, 101319.14, 17.92, 17.58, 0, 2, 11, 42, -32, 34
12435200, 4231876, 1.00, -0.02, -0.01, 1939.63, 101324.63, 17.46, 17.59, 0, 2, 12, 44, -37, 34
12435264, 4231976, 1.00, -0.01, -0.01, 1939.77, 101327.61, 17.22, 17.58, 0, 2, 18, 45, -31, 34
12435328, 4232077, 1.00, -0.01, -0.01, 1939.71, 101325.10, 17.43, 17.57, 0, 2, 8, 49, -31, 34
12435392, 4232175, 1.00, -0.01, -0.00, 1939.52, 101327.63, 17.21, 17.56, 0, 2, 12, 46, -30, 34
12435456, 4232278, 1.00, -0.01, -0.01, 1939.66, 101324.69, 17.46, 17.53, 0, 2, 10, 41, -25, 34
12435520, 4232376, 1.00, -0.02, -0.01, 1939.74, 101328.39, 17.15, 17.54, 0, 2, 13, 41, -28, 34
12435584, 4232474, 1.00, -0.02, -0.00, 1939.60, 101328.99, 17.10, 17.55, 0, 2, 16, 40, -32, 34
12435648, 4232574, 1.00, -0.02, -0.01, 1939.57, 101322.75, 17.62, 17.54, 0, 2, 16, 47, -30, 34
12435712, 4232675, 1.00, -0.01, -0.01, 1939.49, 101324.60, 17.47, 17.55, 0, 2, 19, 46, -31, 34
12435776, 4232773, 1.00, -0.01, -0.01, 1939.77, 101327.91, 17.19, 17.53, 0, 2, 21, 47, -36, 34
12435840, 4232873, 1.00, -0.01, -0.00, 1939.33, 101325.39, 17.40, 17.53, 0, 2, 12, 41, -32, 34
12435904, 4232974, 1.00, -0.01, -0.01, 1939.35, 101328.10, 17.18, 17.52, 0, 2, 18, 39, -26, 34
12435968, 4233074, 1.00, -0.01, -0.00, 1939.71, 101329.50, 17.06, 17.49, 0, 2, 5, 41, -26, 34
12436032, 4233175, 1.00, -0.02, -0.01, 1939.57, 101332.16, 16.84, 17.46, 0, 2, 13, 42, -24, 34
12436096, 4233273, 1.00, -0.01, -0.01, 1939.35, 101323.99, 17.52, 17.41, 0, 2, 7, 45, -28, 34
12436160, 4233373, 1.00, -0.01, -0.01, 1939.33, 101335.39, 16.57, 17.41, 0, 2, 16, 48, -29, 34
12436224, 4233474, 0.99, -0.01, -0.01, 1939.16, 101331.49, 16.89, 17.34, 0, 2, 14, 47, -30, 34
12436288, 4233572, 1.00, -0.02, -0.01, 1939.52, 101329.69, 17.04, 17.28, 0, 2, 20, 44, -38, 34
12436352, 4233672, 1.00, -0.01, -0.01, 1939.44, 101329.46, 17.06, 17.25, 0, 2, 9, 50, -36, 34
12436416, 4233775, 1.00, -0.01, -0.01, 1939.41, 101328.82, 17.12, 17.24, 0, 2, 16, 41, -33, 34
12436480, 4233873, 1.00, -0.01, -0.00, 1939.08, 101328.67, 17.13, 17.20, 0, 2, 23, 47, -33, 34
12436544, 4233973, 1.00, -0.01, -0.00, 1939.19, 101333.00, 16.77, 17.18, 0, 2, 15, 44, -31, 34
12436608, 4234076, 1.00, -0.01, -0.01, 1939.11, 101328.13, 17.17, 17.16, 0, 2, 5, 38, -26, 34
12436672, 4234174, 0.99, -0.02, -0.01, 1939.13, 101325.55, 17.39, 17.15, 0, 2, 9, 42, -28, 34
12436736, 4234274, 1.00, -0.01, -0.01, 1939.05, 101330.38, 16.98, 17.16, 0, 2, 9, 40, -30, 34
12436800, 4234377, 1.00, -0.02, -0.01, 1939.19, 101323.60, 17.55, 17.13, 0, 2, 18, 39, -28, 34
12436864, 4234475, 1.00, -0.01, -0.01, 1939.11, 101329.02, 17.10, 17.15, 0, 2, 12, 46, -38, 34
12436928, 4234575, 1.00, -0.01, -0.01, 1938.97, 101329.60, 17.05, 17.15, 0, 2, 9, 52, -30, 34
12436992, 4234678, 1.00, -0.01, -0.01, 1939.11, 101324.89, 17.44, 17.12, 0, 2, 19, 47, -38, 34
12437056, 4234778, 1.00, -0.01, -0.00, 1938.81, 101326.58, 17.30, 17.12, 0, 2, 20, 44, -27, 34
12437120, 4234878, 1.00, -0.01, -0.01, 1939.05, 101328.91, 17.11, 17.13, 0, 2, 12, 40, -31, 34
12437184, 4234979, 1.00, -0.01, -0.00, 1939.08, 101331.32, 16.91, 17.11, 0, 2, 12, 39, -31, 34
12437248, 4235079, 1.00, -0.01, -0.01, 1938.97, 101326.36, 17.32, 17.10, 0, 2, 16, 38, -29, 34
12437312, 4235180, 1.00, -0.01, -0.01, 1938.59, 101330.49, 16.98, 17.11, 0, 2, 12, 42, -29, 34
12437376, 4235278, 1.00, -0.01, -0.01, 1938.97, 101333.42, 16.73, 17.12, 0, 2, 15, 42, -30, 34
12437440, 4235378, 1.00, -0.02, -0.01, 1938.81, 101330.41, 16.98, 17.08, 0, 2, 22, 48, -32, 34
12437504, 4235479, 1.00, -0.02, -0.01, 1939.02, 101330.03, 17.01, 17.10, 0, 2, 22, 49, -32, 34
12437568, 4235579, 1.00, -0.02, -0.01, 1938.83, 101332.24, 16.83, 17.11, 0, 2, 21, 40, -32, 34
12437632, 4235677, 1.00, -0.01, -0.01, 1938.83, 101331.35, 16.91, 17.10, 0, 2, 17, 45, -29, 34
12437696, 4235780, 0.99, -0.01, -0.01, 1938.83, 101325.17, 17.42, 17.09, 0, 2, 5, 43, -31, 34
12437760, 4235878, 1.00, -0.01, -0.01, 1938.89, 101326.17, 17.34, 17.10, 0, 2, 9, 40, -28, 34
12437824, 4235978, 1.00, -0.02, -0.01, 1938.72, 101329.07, 17.10, 17.11, 0, 2, 3, 45, -30, 34
12437888, 4236081, 1.00, -0.01, -0.01, 1938.42, 101331.60, 16.88, 17.13, 0, 2, 7, 42, -30, 34
12437952, 4236179, 1.00, -0.01, -0.01, 1938.70, 101327.50, 17.23, 17.12, 0, 2, 13, 42, -30, 34
12438016, 4236279, 1.00, -0.01, -0.01, 1938.61, 101339.08, 16.26, 17.11, 0, 2, 20, 45, -32, 34
12438080, 4236382, 1.00, -0.01, -0.01, 1938.31, 101332.78, 16.79, 17.07, 0, 2, 19, 40, -29, 34
12438144, 4236482, 1.00, -0.01, -0.01, 1938.48, 101331.14, 16.92, 17.03, 0, 2, 16, 42, -26, 34
12438208, 4236582, 1.00, -0.01, -0.01, 1938.56, 101331.91, 16.86, 17.03, 0, 2, 22, 44, -35, 34
12438272, 4236681, 1.00, -0.02, -0.01, 1938.56, 101329.55, 17.06, 17.02, 0, 2, 17, 50, -32, 34
12438336, 4236781, 1.00, -0.01, -0.00, 1938.31, 101327.21, 17.25, 17.00, 0, 2, 11, 55, -34, 34
12438400, 4236881, 1.00, -0.01, -0.01, 1938.45, 101324.33, 17.49, 16.99, 0, 2, 6, 47, -30, 34
12438464, 4236982, 1.00, -0.01, -0.01, 1938.39, 101326.21, 17.33, 17.01, 0, 2, 14, 40, -29, 34
12438528, 4237080, 1.00, -0.02, -0.01, 1938.91, 101324.47, 17.48, 17.03, 0, 2, 2, 34, -26, 34
12438592, 4237182, 1.00, -0.01, -0.01, 1938.34, 101326.38, 17.32, 17.04, 0, 2, 20, 38, -26, 34
12438656, 4237281, 1.00, -0.02, -0.01, 1938.42, 101322.19, 17.67, 17.06, 0, 2, 11, 43, -28, 34
12438720, 4237379, 1.00, -0.02, -0.01, 1938.17, 101325.13, 17.42, 17.11, 0, 2, 12, 49, -33, 34
12438784, 4237479, 1.00, -0.02, -0.01, 1938.42, 101328.07, 17.18, 17.13, 0, 2, 21, 48, -40, 34
12438848, 4237580, 1.00, -0.01, -0.01, 1938.50, 101328.85, 17.11, 17.14, 0, 2, 17, 51, -37, 34
12438912, 4237678, 1.00, -0.01, -0.01, 1938.56, 101325.14, 17.42, 17.15, 0, 2, 8, 45, -36, 34
12438976, 4237780, 1.00, -0.01, -0.01, 1938.15, 101327.13, 17.26, 17.18, 0, 2, 16, 41, -34, 34
12439040, 4237881, 1.00, -0.01, -0.01, 1938.15, 101330.36, 16.99, 17.17, 0, 2, 14, 36, -22, 34
12439104, 4237981, 1.00, -0.02, -0.01, 1938.17, 101330.13, 17.01, 17.15, 0, 2, 2, 39, -23, 34
12439168, 4238080, 1.00, -0.02, -0.01, 1938.09, 101321.71, 17.71, 17.15, 0, 2, 10, 48, -27, 34
12439232, 4238180, 1.00, -0.02, -0.01, 1938.01, 101325.94, 17.35, 17.19, 0, 2, 22, 45, -35, 34
12439296, 4238278, 1.00, -0.01, -0.01, 1937.95, 101322.02, 17.68, 17.19, 0, 2, 23, 47, -41, 34
12439360, 4238379, 1.00, -0.01, -0.01, 1938.04, 101324.24, 17.50, 17.26, 0, 2, 17, 45, -38, 34
12439424, 4238479, 1.00, -0.01, -0.00, 1937.98, 101322.07, 17.68, 17.30, 0, 2, 15, 44, -31, 34
12439488, 4238579, 1.00, -0.01, -0.01, 1938.04, 101327.17, 17.25, 17.34, 0, 2, 9, 44, -25, 34
12439552, 4238680, 1.00, -0.01, -0.01, 1937.84, 101324.97, 17.44, 17.36, 0, 2, -1, 44, -19, 34
12439616, 4238778, 1.00, -0.02, -0.01, 1937.84, 101325.27, 17.41, 17.38, 0, 2, 7, 38, -26, 34
12439680, 4238878, 1.00, -0.02, -0.01, 1937.98, 101322.64, 17.63, 17.38, 0, 2, 11, 38, -27, 34
12439744, 4238979, 1.00, -0.01, -0.02, 1938.04, 101327.17, 17.25, 17.39, 0, 2, 23, 43, -40, 34
12439808, 4239079, 1.00, -0.01, -0.01, 1937.76, 101331.57, 16.89, 17.39, 0, 2, 22, 49, -41, 34
12439872, 4239177, 1.00, -0.01, -0.01, 1937.54, 101324.89, 17.44, 17.36, 0, 2, 30, 52, -37, 34
12439936, 4239280, 1.00, -0.01, -0.01, 1937.82, 101326.97, 17.27, 17.36, 0, 2, 22, 56, -32, 34
12440000, 4239378, 1.00, -0.01, -0.00, 1937.63, 101329.78, 17.04, 17.34, 0, 2, 15, 43, -31, 34
12440064, 4239478, 1.00, -0.01, -0.00, 1937.76, 101325.10, 17.43, 17.32, 0, 2, 11, 40, -29, 34
12440128, 4239581, 1.00, -0.02, -0.00, 1937.49, 101329.47, 17.06, 17.34, 0, 2, 5, 31, -27, 34
12440192, 4239679, 1.00, -0.01, -0.02, 1937.57, 101329.94, 17.02, 17.33, 0, 2, 2, 27, -27, 34
12440256, 4239779, 1.00, -0.01, -0.01, 1937.41, 101329.30, 17.07, 17.31, 0, 2, 13, 38, -31, 34
12440320, 4239882, 1.00, -0.02, -0.01, 1937.43, 101324.36, 17.49, 17.31, 0, 2, 17, 55, -31, 34
12440384, 4239982, 1.00, -0.02, -0.01, 1937.38, 101331.57, 16.89, 17.33, 0, 2, 21, 54, -38, 34
12440448, 4240082, 1.00, -0.01, -0.01, 1937.24, 101327.42, 17.23, 17.32, 0, 2, 16, 52, -38, 34
12440512, 4240185, 1.00, -0.01, -0.00, 1937.46, 101328.83, 17.11, 17.30, 0, 2, 18, 49, -37, 34
12440576, 4240285, 1.00, -0.01, -0.01, 1937.38, 101331.57, 16.89, 17.29, 0, 2, 13, 41, -33, 34
12440640, 4240386, 1.00, -0.01, -0.01, 1937.13, 101325.11, 17.42, 17.25, 0, 2, 9, 37, -31, 34
12440704, 4240484, 1.00, -0.01, -0.01, 1937.19, 101329.07, 17.10, 17.25, 0, 2, 7, 38, -26, 34
12440768, 4240584, 0.99, -0.02, -0.01, 1937.02, 101322.21, 17.67, 17.22, 0, 2, 9, 42, -24, 34
12440832, 4240687, 1.00, -0.02, -0.01, 1937.30, 101331.94, 16.86, 17.24, 0, 2, 19, 46, -33, 34
12440896, 4240785, 1.00, -0.02, -0.01, 1937.08, 101323.52, 17.56, 17.21, 0, 2, 19, 45, -39, 34
12440960, 4240887, 1.00, -0.01, -0.01, 1936.99, 101330.39, 16.98, 17.22, 0, 2, 17, 41, -39, 34
12441024, 4240990, 1.00, -0.01, -0.01, 1937.08, 101326.75, 17.29, 17.18, 0, 2, 16, 42, -30, 34
12441088, 4241088, 1.00, -0.01, -0.01, 1937.16, 101328.13, 17.17, 17.18, 0, 2, 11, 42, -27, 34
12441152, 4241190, 1.00, -0.01, -0.01, 1936.86, 101323.91, 17.52, 17.20, 0, 2, 12, 38, -25, 34
12441216, 4241293, 1.00, -0.01, -0.00, 1937.21, 101330.30, 16.99, 17.20, 0, 2, 14, 38, -22, 34
12441280, 4241391, 1.00, -0.01, -0.01, 1936.86, 101330.38, 16.98, 17.19, 0, 2, 13, 38, -28, 34
12441344, 4241491, 1.00, -0.02, -0.01, 1937.13, 101332.75, 16.79, 17.19, 0, 2, 7, 40, -31, 34
12441408, 4241592, 1.00, -0.02, -0.01, 1937.05, 101331.38, 16.90, 17.16, 0, 2, 13, 45, -34, 34
12441472, 4241690, 1.00, -0.01, -0.01, 1937.02, 101325.44, 17.40, 17.15, 0, 2, 22, 48, -36, 34
12441536, 4241790, 1.00, -0.01, -0.01, 1936.91, 101333.16, 16.75, 17.17, 0, 2, 22, 47, -35, 34
12441600, 4241891, 1.00, -0.01, -0.00, 1936.91, 101330.50, 16.98, 17.15, 0, 2, 21, 49, -29, 34
12441664, 4241991, 1.00, -0.01, -0.00, 1936.94, 101335.27, 16.58, 17.12, 0, 2, 21, 47, -31, 34
12441728, 4242092, 1.00, -0.01, -0.00, 1936.77, 101326.66, 17.30, 17.11, 0, 2, 12, 40, -30, 34
12441792, 4242190, 0.99, -0.01, -0.01, 1936.69, 101335.89, 16.53, 17.11, 0, 2, 11, 37, -27, 34
12441856, 4242290, 1.00, -0.01, -0.01, 1936.77, 101324.02, 17.52, 17.08, 0, 2, 15, 36, -25, 34
12441920, 4242391, 1.00, -0.02, -0.02, 1936.55, 101327.94, 17.19, 17.11, 0, 2, 16, 43, -25, 34
12441984, 4242491, 1.00, -0.01, -0.01, 1936.99, 101323.33, 17.57, 17.10, 0, 2, 11, 50, -31, 34
12442048, 4242589, 1.00, -0.01, -0.00, 1936.75, 101328.38, 17.15, 17.13, 0, 2, 23, 49, -33, 34
12442112, 4242692, 1.00, -0.02, -0.01, 1936.64, 101321.08, 17.76, 17.10, 0, 2, 25, 47, -35, 34
12442176, 4242790, 1.00, -0.01, -0.00, 1936.61, 101327.17, 17.25, 17.15, 0, 2, 16, 47, -39, 34
12442240, 4242890, 1.00, -0.01, -0.01, 1936.53, 101322.88, 17.61, 17.13, 0, 2, 19, 45, -33, 34
12442304, 4242993, 1.00, -0.01, -0.01, 1936.44, 101325.92, 17.36, 17.16, 0, 2, 5, 41, -25, 34
12442368, 4243091, 1.00, -0.01, -0.01, 1936.64, 101324.02, 17.52, 17.17, 0, 2, 10, 43, -19, 34
12442432, 4243191, 1.00, -0.02, -0.01, 1936.44, 101324.16, 17.50, 17.18, 0, 2, 8, 45, -28, 34
12442496, 4243294, 0.99, -0.01, -0.01, 1936.44, 101323.28, 17.58, 17.18, 0, 2, 10, 52, -31, 34
12442560, 4243394, 1.00, -0.02, -0.01, 1936.25, 101324.30, 17.49, 17.21, 0, 2, 24, 49, -39, 34
12442624, 4243494, 1.00, -0.01, -0.01, 1936.44, 101322.69, 17.63, 17.24, 0, 2, 23, 44, -45, 34
12442688, 4243597, 1.00, -0.01, -0.01, 1936.12, 101325.17, 17.42, 17.28, 0, 2, 16, 45, -32, 34
12442752, 4243697, 1.00, -0.01, -0.01, 1936.58, 101325.94, 17.35, 17.30, 0, 2, 14, 42, -27, 34
12442816, 4243798, 1.00, -0.01, -0.01, 1936.01, 101325.50, 17.39, 17.30, 0, 2, 16, 45, -26, 34
12442880, 4243896, 1.00, -0.01, -0.01, 1936.34, 101325.35, 17.40, 17.33, 0, 2, 10, 48, -17, 34
12442944, 4243996, 1.00, -0.02, -0.01, 1936.25, 101323.41, 17.57, 17.35, 0, 2, 10, 41, -29, 34
12443008, 4244097, 1.00, -0.01, -0.01, 1936.25, 101323.41, 17.57, 17.40, 0, 2, 9, 39, -35, 34
12443072, 4244195, 1.00, -0.01, -0.01, 1936.28, 101322.89, 17.61, 17.42, 0, 2, 17, 43, -38, 34
12443136, 4244295, 1.00, -0.01, -0.01, 1936.17, 101321.17, 17.75, 17.47, 0, 2, 20, 45, -33, 34
12443200, 4244396, 1.00, -0.01, -0.01, 1936.28, 101324.94, 17.44, 17.48, 0, 2, 15, 48, -32, 34
12443264, 4244496, 1.00, -0.01, -0.00, 1936.03, 101327.91, 17.19, 17.50, 0, 2, 19, 47, -24, 34
12443328, 4244594, 1.00, -0.01, -0.01, 1936.17, 101326.75, 17.29, 17.48, 0, 2, 16, 42, -28, 34
12443392, 4244697, 1.00, -0.02, -0.01, 1935.98, 101330.13, 17.01, 17.48, 0, 2, 6, 40, -30, 34
12443456, 4244795, 1.00, -0.02, -0.01, 1936.03, 101327.61, 17.22, 17.45, 0, 2, 17, 36, -38, 34
12443520, 4244895, 1.00, -0.01, -0.01, 1936.03, 101321.44, 17.73, 17.44, 0, 2, 22, 43, -37, 34
12443584, 4244998, 1.00, -0.01, -0.01, 1936.12, 101323.11, 17.59, 17.45, 0, 2, 16, 49, -28, 34
12443648, 4245096, 1.00, -0.01, -0.01, 1935.87, 101326.96, 17.27, 17.46, 0, 2, 16, 48, -32, 34
12443712, 4245196, 1.00, -0.01, -0.00, 1935.84, 101320.44, 17.81, 17.45, 0, 2, 24, 47, -32, 34
12443776, 4245299, 1.00, -0.01, -0.01, 1935.90, 101322.61, 17.63, 17.47, 0, 2, 19, 44, -29, 34
12443840, 4245399, 1.00, -0.01, -0.01, 1935.95, 101322.42, 17.65, 17.47, 0, 2, 15, 45, -32, 34
12443904, 4245499, 1.00, -0.01, -0.01, 1935.65, 101321.77, 17.70, 17.48, 0, 2, 12, 40, -29, 34
12443968, 4245598, 1.00, -0.01, -0.01, 1935.68, 101324.77, 17.45, 17.48, 0, 2, 21, 34, -28, 34
12444032, 4245698, 1.00, -0.01, -0.01, 1935.84, 101323.38, 17.57, 17.48, 0, 2, 13, 49, -34, 34
12444096, 4245798, 1.00, -0.01, -0.01, 1935.92, 101323.25, 17.58, 17.49, 0, 2, 8, 50, -35, 34
12444160, 4245897, 1.00, -0.01, -0.01, 1936.06, 101325.61, 17.38, 17.50, 0, 2, 18, 46, -32, 34
12444224, 4245997, 1.00, -0.01, -0.00, 1935.81, 101320.96, 17.77, 17.50, 0, 2, 17, 46, -34, 34
12444288, 4246099, 1.00, -0.01, -0.01, 1935.48, 101322.28, 17.66, 17.51, 0, 2, 13, 40, -29, 34
12444352, 4246198, 1.00, -0.01, -0.01, 1935.70, 101329.82, 17.03, 17.52, 0, 2, 9, 37, -29, 34
12444416, 4246296, 1.00, -0.01, -0.01, 1935.62, 101317.60, 18.05, 17.49, 0, 2, 19, 42, -33, 34
12444480, 4246398, 1.00, -0.01, -0.01, 1935.46, 101324.57, 17.47, 17.50, 0, 2, 14, 45, -34, 34
12444544, 4246497, 1.00, -0.01, -0.01, 1935.79, 101324.13, 17.51, 17.50, 0, 2, 14, 42, -32, 34
12444608, 4246597, 1.00, -0.01, -0.01, 1935.32, 101321.00, 17.77, 17.52, 0, 2, 17, 48, -31, 34
12444672, 4246695, 1.00, -0.01, -0.01, 1935.62, 101324.07, 17.51, 17.54, 0, 2, 20, 42, -31, 34
12444736, 4246796, 1.00, -0.01, -0.01, 1935.76, 101325.25, 17.41, 17.57, 0, 2, 11, 47, -37, 34
12444800, 4246894, 1.00, -0.01, -0.01, 1935.57, 101325.71, 17.38, 17.58, 0, 2, 15, 46, -35, 34
12444864, 4246994, 1.00, -0.01, -0.01, 1935.32, 101323.94, 17.52, 17.56, 0, 2, 18, 44, -33, 34
12444928, 4247097, 1.00, -0.01, -0.01, 1935.65, 101325.00, 17.43, 17.56, 0, 2, 15, 39, -33, 34
12444992, 4247197, 1.00, -0.01, -0.01, 1935.24, 101319.63, 17.88, 17.56, 0, 2, 8, 40, -29, 34
12445056, 4247298, 1.00, -0.01, -0.01, 1935.24, 101322.86, 17.61, 17.57, 0, 2, 13, 43, -28, 34
12445120, 4247398, 1.00, -0.01, -0.01, 1935.15, 101322.38, 17.65, 17.57, 0, 2, 16, 44, -31, 34
12445184, 4247498, 1.00, -0.01, -0.01, 1935.40, 101326.21, 17.33, 17.57, 0, 2, 16, 44, -29, 34
12445248, 4247599, 1.00, -0.01, -0.01, 1935.51, 101334.10, 16.68, 17.55, 0, 2, 10, 44, -33, 34
12445312, 4247697, 1.00, -0.01, -0.01, 1935.24, 101333.74, 16.71, 17.51, 0, 2, 19, 41, -32, 34
12445376, 4247797, 1.00, -0.01, -0.01, 1935.21, 101329.57, 17.05, 17.47, 0, 2, 18, 45, -29, 34
12445440, 4247898, 1.00, -0.01, -0.00, 1935.15, 101327.38, 17.24, 17.44, 0, 2, 8, 39, -30, 34
12445504, 4247998, 1.00, -0.01, -0.01, 1935.15, 101319.74, 17.87, 17.43, 0, 2, 15, 43, -29, 34
12445568, 4248096, 1.00, -0.01, -0.01, 1935.43, 101321.85, 17.70, 17.44, 0, 2, 16, 43, -27, 34
12445632, 4248197, 1.00, -0.02, -0.01, 1935.02, 101320.30, 17.83, 17.44, 0, 2, 16, 42, -35, 34
12445696, 4248297, 1.00, -0.01, -0.01, 1934.96, 101325.19, 17.42, 17.48, 0, 2, 14, 46, -32, 34
12445760, 4248395, 1.00, -0.01, -0.00, 1935.07, 101322.21, 17.67, 17.45, 0, 2, 18, 45, -37, 34
12445824, 4248496, 1.00, -0.01, -0.01, 1935.02, 101325.30, 17.41, 17.46, 0, 2, 16, 46, -35, 34
12445888, 4248596, 1.00, -0.01, -0.01, 1935.21, 101325.75, 17.37, 17.45, 0, 2, 9, 40, -29, 34
12445952, 4248696, 1.00, -0.01, -0.01, 1935.24, 101323.46, 17.56, 17.43, 0, 2, 17, 41, -20, 34
12446016, 4248795, 1.00, -0.01, -0.01, 1935.21, 101324.28, 17.49, 17.44, 0, 2, 13, 42, -31, 34
12446080, 4248895, 1.00, -0.01, -0.01, 1934.88, 101325.58, 17.39, 17.44, 0, 2, 16, 42, -33, 34
12446144, 4248995, 1.00, -0.02, -0.01, 1934.99, 101327.30, 17.24, 17.44, 0, 2, 18, 41, -35, 34
12446208, 4249094, 1.00, -0.01, -0.01, 1935.10, 101327.57, 17.22, 17.43, 0, 2, 24, 52, -39, 34
12446272, 4249194, 1.00, -0.01, -0.01, 1934.83, 101324.30, 17.49, 17.42, 0, 2, 17, 40, -27, 34
12446336, 4249296, 1.00, -0.01, -0.00, 1934.88, 101325.58, 17.39, 17.40, 0, 2, 10, 41, -26, 34
12446400, 4249397, 1.00, -0.01, -0.00, 1934.94, 101325.13, 17.42, 17.38, 0, 2, 20, 46, -25, 34
12446464, 4249495, 1.00, -0.02, -0.00, 1934.77, 101326.22, 17.33, 17.37, 0, 2, 4, 38, -22, 34
12446528, 4249597, 1.00, -0.02, -0.01, 1934.80, 101329.24, 17.08, 17.37, 0, 2, 7, 36, -35, 34
12446592, 4249696, 1.00, -0.01, -0.01, 1934.83, 101328.11, 17.18, 17.39, 0, 2, 11, 37, -29, 34
12446656, 4249796, 1.00, -0.02, -0.01, 1934.61, 101326.16, 17.34, 17.42, 0, 2, 19, 43, -35, 34
12446720, 4249894, 1.00, -0.01, -0.01, 1934.47, 101327.91, 17.19, 17.43, 0, 2, 21, 45, -34, 34
12446784, 4249995, 1.00, -0.02, -0.01, 1934.94, 101327.19, 17.25, 17.43, 0, 2, 24, 46, -28, 34
12446848, 4250093, 1.00, -0.01, -0.01, 1934.44, 101327.25, 17.25, 17.40, 0, 2, 14, 49, -33, 34
12446912, 4250193, 1.00, -0.01, -0.01, 1934.33, 101327.57, 17.22, 17.38, 0, 2, 9, 44, -27, 34
12446976, 4250296, 1.00, -0.02, -0.00, 1934.47, 101328.19, 17.17, 17.34, 0, 2, 15, 44, -32, 34
12447040, 4250394, 1.00, -0.01, -0.01, 1934.63, 101328.00, 17.18, 17.33, 0, 2, 16, 40, -29, 34
12447104, 4250494, 1.00, -0.01, -0.01, 1934.66, 101328.05, 17.18, 17.31, 0, 2, 13, 45, -32, 34
12447168, 4250595, 1.00, -0.01, -0.01, 1934.22, 101323.21, 17.58, 17.30, 0, 2, 19, 43, -33, 34
12447232, 4250695, 1.00, -0.01, -0.01, 1934.25, 101327.38, 17.24, 17.31, 0, 2, 19, 46, -32, 34
12447296, 4250796, 1.00, -0.01, -0.01, 1934.22, 101324.08, 17.51, 17.29, 0, 2, 23, 48, -30, 34
12447360, 4250894, 1.00, -0.01, -0.00, 1934.30, 101327.80, 17.20, 17.29, 0, 2, 11, 48, -28, 34
12447424, 4250994, 1.00, -0.01, -0.00, 1934.03, 101325.13, 17.42, 17.28, 0, 2, 10, 47, -28, 34
12447488, 4251095, 1.00, -0.02, -0.01, 1934.17, 101325.72, 17.37, 17.29, 0, 2, 20, 40, -34, 34
12447552, 4251195, 1.00, -0.01, -0.01, 1934.25, 101326.49, 17.31, 17.30, 0, 2, 17, 37, -30, 34
12447616, 4251293, 1.00, -0.01, -0.01, 1934.06, 101325.77, 17.37, 17.29, 0, 2, 7, 43, -33, 34
12447680, 4251396, 1.00, -0.02, -0.01, 1933.89, 101328.64, 17.13, 17.29, 0, 2, 18, 45, -29, 34
12447744, 4251494, 1.00, -0.01, -0.01, 1934.14, 101322.14, 17.67, 17.28, 0, 2, 28, 47, -30, 34
12447808, 4251594, 1.00, -0.01, -0.00, 1933.97, 101326.46, 17.31, 17.29, 0, 2, 16, 45, -28, 34
12447872, 4251695, 1.00, -0.01, -0.00, 1934.08, 101334.36, 16.65, 17.30, 0, 2, 7, 44, -30, 34
12447936, 4251795, 1.00, -0.01, -0.01, 1934.03, 101321.32, 17.74, 17.28, 0, 2, 12, 43, -33, 34
12448000, 4251895, 1.00, -0.02, -0.01, 1933.73, 101330.61, 16.97, 17.30, 0, 2, 11, 34, -28, 34
12448064, 4251994, 1.00, -0.01, -0.01, 1934.11, 101326.78, 17.29, 17.29, 0, 2, 8, 44, -33, 34
12448128, 4252094, 1.00, -0.01, -0.01, 1933.81, 101324.92, 17.44, 17.29, 0, 2, 14, 45, -28, 34
12448192, 4252194, 1.00, -0.01, -0.01, 1934.11, 101333.55, 16.72, 17.30, 0, 2, 20, 45, -30, 34
12448256, 4252293, 1.00, -0.01, -0.01, 1933.73, 101333.27, 16.75, 17.27, 0, 2, 2, 48, -29, 34
12448320, 4252393, 1.00, -0.01, -0.01, 1933.59, 101322.69, 17.63, 17.25, 0, 2, 11, 42, -30, 34
12448384, 4252495, 1.00, -0.01, -0.01, 1933.65, 101332.50, 16.81, 17.27, 0, 2, 17, 38, -31, 34
12448448, 4252596, 1.00, -0.01, -0.01, 1933.32, 101326.46, 17.31, 17.26, 0, 2, 14, 38, -30, 34
12448512, 4252694, 1.00, -0.01, -0.01, 1933.56, 101330.86, 16.95, 17.24, 0, 2, 15, 43, -29, 34
12448576, 4252796, 1.00, -0.02, -0.01, 1933.45, 101329.71, 17.04, 17.23, 0, 2, 23, 49, -38, 34
12448640, 4252897, 1.00, -0.01, -0.01, 1933.65, 101329.27, 17.08, 17.20, 0, 2, 19, 48, -39, 34
12448704, 4252995, 1.00, -0.01, -0.00, 1933.56, 101324.39, 17.48, 17.20, 0, 2, 17, 49, -33, 34
12448768, 4253097, 1.00, -0.01, -0.00, 1933.29, 101324.03, 17.51, 17.20, 0, 2, 12, 46, -31, 34
12448832, 4253196, 1.00, -0.01, -0.01, 1933.29, 101332.27, 16.83, 17.21, 0, 2, 8, 42, -27, 34
12448896, 4253296, 1.00, -0.01, -0.01, 1933.29, 101323.46, 17.56, 17.18, 0, 2, 5, 35, -23, 34
12448960, 4253394, 1.00, -0.01, -0.01, 1933.32, 101323.50, 17.56, 17.19, 0, 2, 6, 35, -25, 34
12449024, 4253495, 1.00, -0.02, -0.01, 1933.29, 101325.22, 17.42, 17.22, 0, 2, 8, 39, -31, 34
12449088, 4253593, 1.00, -0.02, -0.01, 1933.07, 101325.89, 17.36, 17.20, 0, 2, 18, 40, -40, 34
12449152, 4253693, 1.00, -0.01, -0.01, 1933.18, 101327.30, 17.24, 17.20, 0, 2, 35, 46, -37, 34
12449216, 4253794, 1.00, -0.02, -0.01, 1932.93, 101324.67, 17.46, 17.23, 0, 2, 28, 43, -39, 34
12449280, 4253894, 1.00, -0.00, -0.00, 1933.15, 101325.77, 17.37, 17.22, 0, 2, 15, 37, -31, 34
12449344, 4253995, 1.00, -0.01, -0.00, 1932.93, 101328.50, 17.14, 17.24, 0, 2, 13, 36, -22, 34
12449408, 4254093, 1.00, -0.01, -0.01, 1932.77, 101324.33, 17.49, 17.23, 0, 2, 7, 35, -28, 34
12449472, 4254193, 1.00, -0.01, -0.01, 1933.18, 101331.41, 16.90, 17.24, 0, 2, -2, 34, -24, 34
12449536, 4254294, 1.00, -0.02, -0.01, 1933.07, 101331.17, 16.92, 17.24, 0, 2, 9, 35, -26, 34
12449600, 4254392, 1.00, -0.01, -0.02, 1932.88, 101328.38, 17.15, 17.25, 0, 2, 13, 44, -29, 34
12449664, 4254492, 0.99, -0.02, -0.01, 1932.74, 101330.46, 16.98, 17.23, 0, 2, 23, 53, -36, 34
12449728, 4254595, 1.00, -0.01, -0.01, 1932.46, 101324.24, 17.50, 17.24, 0, 2, 25, 50, -38, 34
12449792, 4254693, 1.00, -0.02, -0.00, 1932.71, 101330.10, 17.01, 17.25, 0, 2, 18, 49, -34, 34
12449856, 4254793, 1.00, -0.01, -0.00, 1932.68, 101326.21, 17.33, 17.25, 0, 2, 16, 49, -30, 34
12449920, 4254894, 1.00, -0.01, -0.01, 1932.74, 101326.92, 17.27, 17.27, 0, 2, 5, 37, -22, 34
12449984, 4254994, 0.99, -0.01, -0.00, 1932.71, 101328.63, 17.13, 17.27, 0, 2, -12, 36, -23, 34
12450048, 4255092, 1.00, -0.02, -0.01, 1932.68, 101329.16, 17.09, 17.26, 0, 2, 1, 36, -22, 34
12450112, 4255193, 1.00, -0.02, -0.02, 1932.52, 101332.32, 16.82, 17.24, 0, 2, -5, 37, -36, 34
12450176, 4255293, 1.00, -0.02, -0.02, 1932.35, 101328.96, 17.10, 17.24, 0, 2, 13, 53, -32, 34
12450240, 4255393, 1.00, -0.02, -0.02, 1932.27, 101326.13, 17.34, 17.21, 0, 2, 17, 51, -45, 34
12450304, 4255492, 1.00, -0.01, -0.01, 1932.66, 101330.25, 17.00, 17.20, 0, 2, 34, 55, -39, 34
12450368, 4255592, 1.00, -0.01, -0.00, 1932.71, 101327.44, 17.23, 17.18, 0, 2, 11, 50, -34, 34
12450432, 4255692, 1.00, -0.00, -0.00, 1932.68, 101328.86, 17.11, 17.17, 0, 2, 14, 40, -25, 34
12450496, 4255791, 1.00, -0.02, 0.00, 1932.52, 101326.13, 17.34, 17.17, 0, 2, 12, 30, -22, 34
12450560, 4255891, 1.00, -0.01, -0.01, 1932.38, 101328.13, 17.17, 17.16, 0, 2, 8, 32, -21, 34
12450624, 4255993, 1.00, -0.02, -0.02, 1932.25, 101325.49, 17.39, 17.15, 0, 2, 8, 42, -26, 34
12450688, 4256094, 1.00, -0.02, -0.02, 1932.30, 101327.66, 17.21, 17.16, 0, 2, 5, 48, -32, 34
12450752, 4256192, 1.00, -0.01, -0.01, 1932.19, 101325.66, 17.38, 17.15, 0, 2, 17, 52, -35, 34
12450816, 4256294, 1.00, -0.02, -0.00, 1932.33, 101327.42, 17.23, 17.17, 0, 2, 37, 52, -39, 34
12450880, 4256395, 1.00, -0.01, -0.00, 1932.14, 101325.52, 17.39, 17.19, 0, 2, 19, 47, -44, 34
12450944, 4256493, 1.00, -0.01, -0.00, 1932.19, 101333.00, 16.77, 17.20, 0, 2, 1, 45, -32, 34
12451008, 4256595, 1.00, -0.01, -0.01, 1932.27, 101330.85, 16.95, 17.19, 0, 2, 3, 44, -27, 34
12451072, 4256694, 1.00, -0.02, -0.01, 1932.11, 101325.46, 17.40, 17.16, 0, 2, 6, 37, -18, 34
12451136, 4256792, 1.00, -0.02, -0.01, 1932.35, 101331.89, 16.86, 17.18, 0, 2, -11, 35, -26, 34
12451200, 4256892, 0.99, -0.02, -0.01, 1932.08, 101332.46, 16.81, 17.16, 0, 2, 8, 39, -29, 34
12451264, 4256995, 1.00, -0.01, -0.01, 1932.05, 101326.82, 17.28, 17.14, 0, 2, 25, 38, -37, 34
12451328, 4257093, 1.00, -0.02, -0.02, 1931.97, 101327.22, 17.25, 17.14, 0, 2, 21, 46, -39, 34
12451392, 4257193, 1.00, -0.01, -0.01, 1931.94, 101326.58, 17.30, 17.15, 0, 2, 29, 48, -34, 34
12451456, 4257294, 1.00, -0.01, -0.01, 1931.83, 101327.77, 17.20, 17.18, 0, 2, 25, 53, -30, 34
12451520, 4257394, 1.00, -0.01, -0.00, 1931.92, 101332.38, 16.82, 17.18, 0, 2, 20, 49, -26, 34
12451584, 4257495, 1.00, -0.02, -0.00, 1931.92, 101329.44, 17.06, 17.15, 0, 2, 14, 49, -35, 34
12451648, 4257593, 1.00, -0.02, -0.00, 1931.97, 101331.33, 16.91, 17.16, 0, 2, 12, 40, -36, 34
12451712, 4257693, 1.00, -0.02, -0.01, 1931.86, 101327.24, 17.25, 17.14, 0, 2, 11, 31, -35, 34
12451776, 4257794, 1.00, -0.01, -0.01, 1931.81, 101329.19, 17.09, 17.15, 0, 2, 11, 36, -34, 34
12451840, 4257892, 1.00, -0.01, -0.01, 1931.86, 101332.83, 16.78, 17.14, 0, 2, 14, 44, -27, 34
12451904, 4257992, 1.00, -0.01, -0.01, 1931.42, 101329.80, 17.04, 17.12, 0, 2, 13, 49, -26, 34
12451968, 4258095, 1.00, -0.01, -0.01, 1931.67, 101325.10, 17.43, 17.10, 0, 2, 13, 49, -30, 34
12452032, 4258193, 1.00, -0.01, -0.01, 1931.72, 101329.61, 17.05, 17.11, 0, 2, 15, 49, -30, 34
12452096, 4258293, 0.99, -0.02, -0.00, 1931.61, 101332.28, 16.83, 17.09, 0, 2, 14, 40, -33, 34
12452160, 4258396, 1.00, -0.01, -0.01, 1931.67, 101329.80, 17.04, 17.07, 0, 2, 17, 35, -37, 34
12452224, 4258494, 1.00, -0.01, -0.01, 1931.70, 101331.91, 16.86, 17.06, 0, 2, 13, 34, -31, 34
12452288, 4258594, 1.00, -0.01, -0.02, 1931.28, 101329.17, 17.09, 17.06, 0, 2, 6, 34, -26, 34
12452352, 4258697, 1.00, -0.02, -0.01, 1931.28, 101322.11, 17.67, 17.07, 0, 2, 12, 48, -25, 34
12452416, 4258795, 1.00, -0.02, -0.01, 1931.31, 101335.11, 16.59, 17.08, 0, 2, 5, 48, -24, 34
12452480, 4258895, 1.00, -0.02, -0.00, 1931.39, 101329.74, 17.04, 17.07, 0, 2, 8, 49, -33, 34
12452544, 4258998, 1.00, -0.01, -0.01, 1930.95, 101326.97, 17.27, 17.08, 0, 2, 24, 45, -34, 34
12452608, 4259098, 1.00, -0.02, -0.00, 1931.72, 101328.74, 17.12, 17.08, 0, 2, 16, 41, -38, 34
12452672, 4259198, 1.00, -0.00, -0.01, 1931.31, 101330.71, 16.96, 17.07, 0, 2, 25, 38, -26, 34
12452736, 4259299, 1.00, -0.01, -0.01, 1931.31, 101329.22, 17.08, 17.05, 0, 2, 17, 43, -23, 34
12452800, 4259399, 1.00, -0.01, -0.01, 1931.42, 101329.80, 17.04, 17.05, 0, 2, -5, 46, -18, 34
12452864, 4259500, 1.00, -0.02, -0.01, 1931.15, 101331.24, 16.91, 17.06, 0, 2, 6, 50, -19, 34
12452928, 4259598, 1.00, -0.02, -0.01, 1931.04, 101332.14, 16.84, 17.05, 0, 2, 18, 42, -39, 34
12452992, 4259698, 0.99, -0.02, -0.01, 1931.09, 101324.61, 17.47, 17.05, 0, 2, 21, 45, -38, 34
12453056, 4259799, 1.00, -0.01, -0.01, 1930.98, 101330.25, 17.00, 17.06, 0, 2, 25, 36, -43, 34
12453120, 4259899, 1.00, -0.00, -0.01, 1931.12, 101329.41, 17.07, 17.05, 0, 2, 20, 43, -25, 34
12453184, 4259997, 1.00, -0.02, -0.01, 1931.01, 101331.19, 16.92, 17.07, 0, 2, 13, 42, -23, 34
12453248, 4260100, 1.00, -0.01, -0.01, 1931.09, 101325.49, 17.39, 17.06, 0, 2, 14, 47, -21, 34
12453312, 4260198, 1.00, -0.03, -0.00, 1931.06, 101330.72, 16.96, 17.06, 0, 2, 17, 51, -26, 34
12453376, 4260298, 1.00, -0.02, -0.01, 1930.84, 101331.41, 16.90, 17.06, 0, 2, 19, 45, -34, 34
12453440, 4260401, 1.00, -0.02, -0.01, 1930.98, 101323.78, 17.53, 17.06, 0, 2, 32, 41, -45, 34
12453504, 4260499, 1.00, -0.00, -0.01, 1930.82, 101332.22, 16.83, 17.09, 0, 2, 26, 43, -39, 34
12453568, 4260599, 1.00, -0.00, -0.01, 1930.79, 101326.28, 17.33, 17.08, 0, 2, 16, 48, -36, 34
12453632, 4260702, 1.00, -0.01, -0.01, 1930.73, 101331.17, 16.92, 17.10, 0, 2, 6, 37, -24, 34
12453696, 4260802, 1.00, -0.01, -0.00, 1931.01, 101331.49, 16.89, 17.06, 0, 2, 1, 43, -16, 34
12453760, 4260902, 1.00, -0.02, -0.01, 1930.71, 101329.07, 17.10, 17.07, 0, 2, 6, 37, -26, 34
12453824, 4261005, 0.99, -0.02, -0.01, 1930.82, 101331.05, 16.93, 17.08, 0, 2, 15, 36, -31, 34
12453888, 4261105, 1.00, -0.02, -0.01, 1930.52, 101328.89, 17.11, 17.06, 0, 2, 27, 38, -40, 34
12453952, 4261206, 1.00, -0.01, -0.02, 1930.65, 101330.42, 16.98, 17.06, 0, 2, 27, 52, -39, 34
12454016, 4261306, 1.00, -0.01, -0.01, 1930.49, 101324.72, 17.46, 17.06, 0, 2, 27, 49, -35, 34
12454080, 4261406, 1.00, -0.01, -0.01, 1930.65, 101331.60, 16.88, 17.08, 0, 2, 15, 52, -30, 34
12454144, 4261507, 1.00, -0.02, -0.00, 1930.90, 101332.14, 16.84, 17.07, 0, 2, 13, 47, -26, 34
12454208, 4261605, 1.00, -0.02, -0.00, 1930.46, 101329.66, 17.05, 17.07, 0, 2, 5, 40, -29, 34
12454272, 4261705, 1.00, -0.01, -0.01, 1930.68, 101331.07, 16.93, 17.08, 0, 2, 9, 33, -32, 34
12454336, 4261808, 1.00, -0.02, -0.01, 1930.73, 101324.42, 17.48, 17.05, 0, 2, 17, 33, -31, 34
12454400, 4261906, 1.00, -0.01, -0.02, 1930.63, 101328.60, 17.14, 17.08, 0, 2, 13, 42, -29, 34
12454464, 4262006, 1.00, -0.01, -0.01, 1930.63, 101327.42, 17.23, 17.08, 0, 2, 12, 48, -27, 34
12454528, 4262109, 1.00, -0.01, -0.01, 1930.21, 101328.50, 17.14, 17.09, 0, 2, 8, 46, -31, 34
12454592, 4262207, 1.00, -0.02, -0.01, 1930.52, 101327.13, 17.26, 17.08, 0, 2, 15, 54, -33, 34
12454656, 4262307, 1.00, -0.02, -0.00, 1930.54, 101328.97, 17.10, 17.10, 0, 2, 20, 45, -37, 34
12454720, 4262410, 1.00, -0.01, -0.00, 1930.43, 101327.25, 17.25, 17.11, 0, 2, 28, 40, -38, 34
12454784, 4262508, 1.00, -0.01, -0.01, 1930.24, 101328.57, 17.14, 17.09, 0, 2, 13, 40, -28, 34
12454848, 4262608, 1.00, -0.01, -0.02, 1930.21, 101327.03, 17.26, 17.11, 0, 2, 18, 40, -29, 34
12454912, 4262711, 1.00, -0.01, -0.01, 1930.19, 101330.21, 17.00, 17.10, 0, 2, 17, 44, -27, 34
12454976, 4262811, 1.00, -0.01, -0.01, 1929.94, 101331.71, 16.88, 17.11, 0, 2, 17, 48, -24, 34
12455040, 4262912, 1.00, -0.02, -0.00, 1930.30, 101326.91, 17.28, 17.11, 0, 2, 17, 42, -30, 34
12455104, 4263010, 1.00, -0.02, -0.00, 1930.16, 101330.16, 17.00, 17.12, 0, 2, 24, 41, -34, 34
12455168, 4263110, 1.00, -0.01, -0.00, 1930.19, 101329.03, 17.10, 17.12, 0, 2, 22, 41, -37, 34
12455232, 4263211, 1.00, -0.01, -0.01, 1930.08, 101327.33, 17.24, 17.12, 0, 2, 15, 41, -36, 34
12455296, 4263309, 1.00, -0.01, -0.01, 1930.19, 101327.57, 17.22, 17.13, 0, 2, 13, 43, -33, 34
12455360, 4263409, 1.00, -0.01, -0.01, 1930.21, 101332.03, 16.85, 17.12, 0, 2, 4, 46, -22, 34
12455424, 4263510, 1.00, -0.02, -0.01, 1930.13, 101328.92, 17.11, 17.12, 0, 2, 10, 44, -25, 34
12455488, 4263610, 0.99, -0.02, -0.01, 1929.77, 101326.94, 17.27, 17.13, 0, 2, 12, 44, -30, 34
12455552, 4263708, 1.00, -0.02, -0.01, 1930.02, 101328.94, 17.11, 17.14, 0, 2, 22, 37, -34, 34
12455616, 4263811, 1.00, -0.01, -0.01, 1929.94, 101326.71, 17.29, 17.15, 0, 2, 29, 44, -35, 34
12455680, 4263909, 1.00, -0.01, -0.01, 1929.94, 101327.60, 17.22, 17.14, 0, 2, 20, 45, -33, 34
12455744, 4264007, 1.00, -0.01, -0.01, 1929.94, 101330.24, 17.00, 17.15, 0, 2, 17, 49, -26, 34
12455808, 4264108, 1.00, -0.01, -0.01, 1929.88, 101326.60, 17.30, 17.14, 0, 2, 11, 47, -27, 34
12455872, 4264208, 1.00, -0.02, -0.01, 1929.88, 101328.36, 17.15, 17.14, 0, 2, 12, 43, -33, 34
12455936, 4264306, 1.00, -0.02, -0.01, 1929.86, 101331.53, 16.89, 17.14, 0, 2, 12, 43, -33, 34
12456000, 4264407, 1.00, -0.02, -0.01, 1929.99, 101325.64, 17.38, 17.13, 0, 2, 14, 37, -36, 34
12456064, 4264507, 1.00, -0.01, -0.01, 1929.77, 101326.07, 17.34, 17.13, 0, 2, 17, 36, -31, 34
12456128, 4264607, 1.00, -0.01, -0.01, 1929.80, 101327.00, 17.27, 17.14, 0, 2, 5, 44, -25, 34
12456192, 4264708, 1.00, -0.01, -0.01, 1929.44, 101332.63, 16.80, 17.14, 0, 2, 18, 47, -26, 34
12456256, 4264808, 1.00, -0.02, -0.01, 1929.83, 101329.42, 17.07, 17.13, 0, 2, 7, 49, -25, 34
12456320, 4264908, 1.00, -0.02, -0.01, 1929.75, 101332.75, 16.79, 17.14, 0, 2, 12, 43, -30, 34
12456384, 4265009, 1.00, -0.02, -0.00, 1929.69, 101334.10, 16.68, 17.12, 0, 2, 13, 43, -35, 34
12456448, 4265109, 1.00, -0.01, -0.01, 1929.69, 101330.58, 16.97, 17.10, 0, 2, 13, 33, -37, 34
12456512, 4265209, 1.00, -0.01, -0.01, 1929.39, 101324.88, 17.44, 17.10, 0, 2, 13, 41, -33, 34
12456576, 4265310, 1.00, -0.01, -0.01, 1929.64, 101330.75, 16.96, 17.11, 0, 2, 14, 49, -31, 34
12456640, 4265408, 1.00, -0.01, -0.01, 1929.75, 101328.05, 17.18, 17.09, 0, 2, 19, 50, -31, 34
12456704, 4265508, 1.00, -0.02, -0.01, 1929.33, 101331.22, 16.92, 17.11, 0, 2, 14, 49, -32, 34
12456768, 4265609, 1.00, -0.02, -0.01, 1929.20, 101330.30, 16.99, 17.10, 0, 2, 21, 44, -34, 34
12456832, 4265707, 1.00, -0.02, -0.01, 1929.88, 101331.30, 16.91, 17.09, 0, 2, 27, 45, -34, 34
12456896, 4265807, 1.00, -0.01, -0.01, 1929.47, 101325.92, 17.36, 17.08, 0, 2, 19, 41, -32, 34
12456960, 4265908, 1.00, -0.01, -0.01, 1929.77, 101326.35, 17.32, 17.08, 0, 2, 14, 45, -29, 34
12457024, 4266008, 1.00, -0.01, -0.01, 1929.14, 101323.14, 17.59, 17.09, 0, 2, 14, 51, -28, 34
12457088, 4266106, 1.00, -0.02, -0.01, 1929.25, 101328.67, 17.13, 17.12, 0, 2, 16, 47, -28, 34
12457152, 4266207, 1.00, -0.01, -0.00, 1929.39, 101327.82, 17.20, 17.11, 0, 2, 13, 48, -33, 34
12457216, 4266307, 1.00, -0.02, -0.00, 1929.44, 101325.28, 17.41, 17.11, 0, 2, 6, 39, -33, 34
12457280, 4266405, 1.00, -0.01, -0.01, 1929.14, 101327.85, 17.20, 17.13, 0, 2, 12, 34, -35, 34
12457344, 4266506, 1.00, -0.01, -0.01, 1929.25, 101324.27, 17.49, 17.13, 0, 2, 10, 41, -30, 34
12457408, 4266606, 1.00, -0.01, -0.01, 1928.81, 101328.88, 17.11, 17.13, 0, 2, 5, 44, -24, 34
12457472, 4266704, 1.00, -0.01, -0.01, 1929.17, 101325.25, 17.41, 17.13, 0, 2, 14, 43, -26, 34
12457536, 4266805, 1.00, -0.01, -0.01, 1928.98, 101323.07, 17.60, 17.16, 0, 2, 21, 51, -24, 34
12457600, 4266905, 1.00, -0.02, -0.01, 1929.09, 101324.19, 17.50, 17.18, 0, 2, 20, 43, -33, 34
12457664, 4267005, 1.00, -0.01, -0.01, 1928.68, 101324.11, 17.51, 17.22, 0, 2, 20, 42, -44, 34
12457728, 4267104, 1.00, -0.01, -0.01, 1928.95, 101327.99, 17.19, 17.26, 0, 2, 15, 40, -35, 34
12457792, 4267204, 1.00, -0.01, -0.01, 1928.62, 101329.30, 17.07, 17.27, 0, 2, 11, 41, -35, 34
12457856, 4267307, 1.00, 0.00, -0.01, 1928.84, 101327.75, 17.20, 17.25, 0, 2, 8, 46, -25, 34
12457920, 4267405, 1.00, -0.02, -0.01, 1928.98, 101327.17, 17.25, 17.26, 0, 2, 17, 45, -22, 34
12457984, 4267503, 1.00, -0.01, -0.01, 1928.68, 101325.88, 17.36, 17.27, 0, 2, 14, 42, -34, 34
12458048, 4267603, 1.00, -0.01, -0.01, 1928.73, 101325.75, 17.37, 17.29, 0, 2, 9, 43, -28, 34
12458112, 4267704, 1.00, -0.02, -0.01, 1928.70, 101324.52, 17.47, 17.31, 0, 2, 22, 44, -38, 34
12458176, 4267802, 1.00, -0.01, -0.01, 1928.87, 101321.35, 17.74, 17.34, 0, 2, 22, 49, -35, 34
12458240, 4267905, 1.00, -0.01, -0.01, 1928.59, 101325.41, 17.40, 17.36, 0, 2, 16, 53, -35, 34
12458304, 4268005, 1.00, -0.01, -0.00, 1928.46, 101319.82, 17.86, 17.36, 0, 2, 15, 46, -33, 34
12458368, 4268105, 1.00, -0.01, -0.01, 1928.81, 101333.58, 16.72, 17.37, 0, 2, 18, 47, -30, 34
12458432, 4268204, 1.00, -0.02, -0.00, 1928.59, 101329.53, 17.06, 17.35, 0, 2, 11, 41, -30, 34
12458496, 4268304, 1.00, -0.01, -0.01, 1928.65, 101323.77, 17.54, 17.35, 0, 2, 13, 32, -32, 34
12458560, 4268402, 1.00, -0.01, -0.01, 1928.59, 101327.77, 17.20, 17.35, 0, 2, 12, 35, -29, 34
12458624, 4268503, 1.00, -0.01, -0.01, 1928.59, 101325.71, 17.38, 17.35, 0, 2, 13, 40, -30, 34
12458688, 4268603, 1.00, -0.01, -0.01, 1928.46, 101328.03, 17.18, 17.35, 0, 2, 16, 41, -26, 34
12458752, 4268703, 1.00, -0.02, -0.01, 1928.57, 101330.94, 16.94, 17.35, 0, 2, 16, 46, -24, 34
12458816, 4268804, 1.00, -0.01, -0.01, 1928.40, 101329.97, 17.02, 17.33, 0, 2, 24, 43, -34, 34
12458880, 4268902, 1.00, -0.02, -0.01, 1928.35, 101328.67, 17.13, 17.30, 0, 2, 14, 39, -26, 34
12458944, 4269002, 1.00, -0.01, -0.01, 1928.37, 101328.44, 17.15, 17.28, 0, 2, 10, 42, -35, 34
12459008, 4269103, 1.00, -0.01, -0.01, 1928.26, 101329.67, 17.05, 17.26, 0, 2, 15, 46, -31, 34
12459072, 4269201, 1.00, -0.02, -0.01, 1928.43, 101327.39, 17.23, 17.25, 0, 2, 11, 45, -33, 34
12459136, 4269301, 0.99, -0.01, -0.01, 1928.29, 101329.74, 17.04, 17.26, 0, 2, 6, 47, -31, 34
12459200, 4269402, 1.00, -0.02, -0.01, 1928.43, 101329.16, 17.09, 17.25, 0, 2, 12, 51, -27, 34
12459264, 4269502, 1.00, -0.01, -0.01, 1928.10, 101328.71, 17.12, 17.25, 0, 2, 13, 41, -30, 34
12459328, 4269600, 1.00, -0.01, -0.01, 1928.21, 101329.53, 17.06, 17.23, 0, 2, 18, 41, -39, 34
12459392, 4269701, 1.00, -0.01, -0.01, 1928.21, 101329.83, 17.03, 17.22, 0, 2, 23, 42, -36, 34
12459456, 4269801, 1.00, -0.01, -0.01, 1928.04, 101327.11, 17.26, 17.20, 0, 2, 4, 41, -34, 34
12459520, 4269901, 1.00, -0.01, -0.01, 1928.18, 101327.13, 17.26, 17.17, 0, 2, 6, 45, -26, 34
12459584, 4270000, 1.00, -0.02, -0.01, 1928.18, 101328.30, 17.16, 17.17, 0, 2, 10, 47, -30, 34
12459648, 4270100, 1.00, -0.01, -0.01, 1927.93, 101330.10, 17.01, 17.13, 0, 2, 13, 44, -28, 34
12459712, 4270200, 1.00, -0.02, -0.01, 1927.82, 101324.57, 17.47, 17.14, 0, 2, 5, 44, -32, 34
12459776, 4270299, 1.00, -0.02, -0.01, 1927.96, 101328.67, 17.13, 17.17, 0, 2, 14, 39, -36, 34
12459840, 4270399, 1.00, -0.01, -0.01, 1927.71, 101326.66, 17.30, 17.14, 0, 2, 18, 38, -37, 34
12459904, 4270501, 1.00, -0.01, -0.01, 1927.66, 101326.82, 17.28, 17.15, 0, 2, 21, 48, -33, 34
12459968, 4270602, 1.00, -0.01, -0.01, 1927.91, 101326.50, 17.31, 17.14, 0, 2, 17, 46, -31, 34
12460032, 4270700, 1.00, -0.01, -0.00, 1927.80, 101331.27, 16.91, 17.15, 0, 2, 17, 50, -27, 34
12460096, 4270802, 1.00, -0.01, -0.01, 1927.69, 101328.94, 17.11, 17.15, 0, 2, 11, 40, -33, 34
12460160, 4270903, 1.00, -0.01, -0.01, 1927.77, 101326.19, 17.33, 17.15, 0, 2, 5, 40, -30, 34
12460224, 4271001, 1.00, -0.02, -0.01, 1927.52, 101323.86, 17.53, 17.16, 0, 2, 18, 38, -36, 34
12460288, 4271104, 1.00, -0.01, -0.01, 1927.66, 101327.99, 17.19, 17.18, 0, 2, 15, 38, -31, 34
12460352, 4271202, 1.00, -0.02, -0.01, 1927.60, 101328.75, 17.12, 17.19, 0, 2, 6, 43, -24, 34
12460416, 4271300, 1.00, -0.02, -0.01, 1927.60, 101327.58, 17.22, 17.19, 0, 2, 16, 41, -26, 34
12460480, 4271400, 1.00, -0.01, -0.01, 1927.85, 101331.67, 16.88, 17.19, 0, 2, 8, 44, -26, 34
12460544, 4271501, 1.00, -0.02, -0.01, 1927.85, 101326.39, 17.32, 17.18, 0, 2, 11, 42, -35, 34
12460608, 4271599, 1.00, -0.01, -0.01, 1927.80, 101327.75, 17.20, 17.19, 0, 2, 27, 41, -36, 34
12460672, 4271699, 1.00, -0.02, -0.01, 1927.44, 101326.92, 17.27, 17.20, 0, 2, 26, 39, -34, 34
12460736, 4271800, 1.00, -0.01, -0.01, 1927.49, 101324.39, 17.48, 17.21, 0, 2, 9, 42, -38, 34
12460800, 4271900, 1.00, -0.01, -0.01, 1927.33, 101332.25, 16.83, 17.22, 0, 2, 8, 44, -20, 34
12460864, 4272001, 1.00, -0.02, -0.01, 1927.69, 101327.75, 17.20, 17.20, 0, 2, 16, 49, -29, 34
12460928, 4272101, 1.00, -0.01, -0.00, 1927.38, 101328.85, 17.11, 17.20, 0, 2, 9, 52, -31, 34
12460992, 4272201, 1.00, -0.02, -0.00, 1927.47, 101329.05, 17.10, 17.21, 0, 2, 17, 38, -35, 34
12461056, 4272302, 1.00, -0.01, -0.01, 1927.44, 101328.10, 17.18, 17.19, 0, 2, 21, 40, -39, 34
12461120, 4272400, 1.00, -0.01, -0.01, 1927.30, 101330.71, 16.96, 17.19, 0, 2, 19, 34, -34, 34
12461184, 4272502, 1.00, -0.01, -0.02, 1927.25, 101332.66, 16.80, 17.18, 0, 2, 10, 39, -26, 34
12461248, 4272603, 1.00, -0.01, -0.01, 1927.30, 101328.96, 17.10, 17.15, 0, 2, 20, 52, -24, 34
12461312, 4272701, 1.00, -0.01, -0.01, 1927.16, 101326.28, 17.33, 17.14, 0, 2, 15, 45, -28, 34
12461376, 4272803, 1.00, -0.02, -0.00, 1926.81, 101325.19, 17.42, 17.16, 0, 2, 14, 43, -25, 34
12461440, 4272906, 1.00, -0.02, -0.01, 1927.19, 101328.13, 17.17, 17.18, 0, 2, 13, 42, -38, 34
12461504, 4273004, 1.00, -0.02, -0.01, 1927.22, 101331.72, 16.87, 17.17, 0, 2, 23, 39, -40, 34
12461568, 4273104, 1.00, -0.01, -0.01, 1927.30, 101327.19, 17.25, 17.14, 0, 2, 18, 44, -30, 34
12461632, 4273207, 1.00, -0.01, -0.01, 1927.03, 101323.92, 17.52, 17.14, 0, 2, 18, 48, -26, 34
12461696, 4273305, 1.00, -0.01, -0.01, 1926.95, 101329.64, 17.05, 17.16, 0, 2, 13, 51, -29, 34
12461760, 4273405, 1.00, -0.02, -0.01, 1927.08, 101326.69, 17.29, 17.15, 0, 2, 15, 46, -29, 34
12461824, 4273506, 1.00, -0.02, -0.00, 1927.06, 101324.86, 17.44, 17.17, 0, 2, 16, 41, -31, 34
12461888, 4273606, 1.00, -0.02, -0.01, 1926.64, 101329.80, 17.04, 17.18, 0, 2, 18, 39, -39, 34
12461952, 4273707, 1.00, -0.01, -0.01, 1927.19, 101332.83, 16.78, 17.17, 0, 2, 15, 40, -31, 34
12462016, 4273805, 1.00, -0.01, -0.01, 1927.27, 101328.30, 17.16, 17.15, 0, 2, 13, 38, -28, 34
12462080, 4273905, 1.00, -0.01, -0.02, 1926.97, 101332.03, 16.85, 17.13, 0, 2, 13, 46, -25, 34
12462144, 4274006, 1.00, -0.01, -0.01, 1926.95, 101329.94, 17.02, 17.13, 0, 2, 11, 48, -26, 34
12462208, 4274104, 1.00, -0.01, -0.01, 1926.78, 101330.41, 16.98, 17.12, 0, 2, 19, 47, -30, 34
12462272, 4274204, 1.00, -0.02, -0.01, 1926.92, 101325.77, 17.37, 17.12, 0, 2, 13, 45, -34, 34
12462336, 4274307, 1.00, -0.01, -0.01, 1926.64, 101325.97, 17.35, 17.13, 0, 2, 19, 41, -38, 34
12462400, 4274405, 1.00, -0.01, -0.01, 1926.81, 101329.00, 17.10, 17.14, 0, 2, 25, 41, -32, 34
12462464, 4274505, 1.00, -0.01, -0.01, 1926.67, 101329.28, 17.08, 17.15, 0, 2, 11, 44, -34, 34
12462528, 4274606, 1.00, -0.01, -0.01, 1926.78, 101325.41, 17.40, 17.16, 0, 2, 5, 45, -24, 34
12462592, 4274706, 1.00, -0.01, -0.01, 1926.34, 101321.17, 17.75, 17.17, 0, 2, 11, 41, -25, 34
12462656, 4274804, 1.00, -0.02, -0.01, 1926.64, 101324.80, 17.45, 17.20, 0, 2, 12, 43, -26, 34
12462720, 4274905, 1.00, -0.01, -0.01, 1926.45, 101326.72, 17.29, 17.20, 0, 2, 9, 39, -32, 34
12462784, 4275005, 1.00, -0.01, -0.01, 1926.45, 101330.55, 16.97, 17.20, 0, 2, 18, 42, -37, 34
12462848, 4275105, 1.00, -0.01, -0.02, 1926.48, 101328.85, 17.11, 17.21, 0, 2, 18, 45, -33, 34
12462912, 4275204, 1.00, -0.01, -0.02, 1926.53, 101328.67, 17.13, 17.20, 0, 2, 18, 52, -29, 34
12462976, 4275304, 1.00, -0.01, -0.01, 1926.42, 101325.21, 17.42, 17.18, 0, 2, 21, 50, -27, 34
12463040, 4275404, 1.00, -0.01, -0.00, 1926.45, 101327.61, 17.22, 17.20, 0, 2, 14, 54, -29, 34
12463104, 4275503, 1.00, -0.02, -0.00, 1926.09, 101328.27, 17.16, 17.20, 0, 2, 15, 32, -29, 34
12463168, 4275603, 1.00, -0.02, -0.01, 1926.45, 101329.96, 17.02, 17.18, 0, 2, 16, 35, -33, 34
12463232, 4275705, 1.00, -0.01, -0.01, 1926.37, 101331.53, 16.89, 17.18, 0, 2, 15, 34, -33, 34
12463296, 4275806, 1.00, -0.01, -0.02, 1926.29, 101328.71, 17.12, 17.19, 0, 2, 13, 47, -32, 34
12463360, 4275904, 1.00, -0.01, -0.01, 1926.34, 101331.77, 16.87, 17.18, 0, 2, 15, 45, -30, 34
12463424, 4276006, 1.00, -0.02, -0.01, 1925.90, 101325.77, 17.37, 17.19, 0, 2, 22, 49, -26, 34
12463488, 4276107, 0.99, -0.02, -0.01, 1926.40, 101329.85, 17.03, 17.20, 0, 2, 16, 47, -28, 34
12463552, 4276205, 1.00, -0.02, -0.00, 1925.87, 101324.83, 17.45, 17.21, 0, 2, 19, 43, -35, 34
12463616, 4276307, 1.00, -0.01, -0.01, 1925.93, 101326.71, 17.29, 17.21, 0, 2, 14, 36, -35, 34
12463680, 4276406, 1.00, -0.01, -0.01, 1926.01, 101327.49, 17.23, 17.21, 0, 2, 10, 41, -34, 34
12463744, 4276506, 1.00, -0.01, -0.01, 1926.04, 101329.32, 17.07, 17.21, 0, 2, 8, 43, -24, 34
12463808, 4276604, 1.00, -0.01, -0.01, 1926.01, 101329.55, 17.06, 17.21, 0, 2, 8, 43, -29, 34
12463872, 4276705, 0.99, -0.02, -0.01, 1926.18, 101329.05, 17.10, 17.20, 0, 2, 9, 46, -28, 34
12463936, 4276803, 1.00, -0.02, -0.01, 1926.01, 101327.19, 17.25, 17.16, 0, 2, 9, 42, -30, 34
12464000, 4276903, 1.00, -0.02, -0.01, 1925.96, 101320.89, 17.77, 17.15, 0, 2, 21, 47, -39, 34
12464064, 4277002, 1.00, -0.01, -0.01, 1925.52, 101324.89, 17.44, 17.18, 0, 2, 15, 51, -44, 34
12464128, 4277102, 1.00, -0.01, -0.01, 1925.82, 101332.63, 16.80, 17.20, 0, 2, 16, 54, -38, 34
12464192, 4277202, 1.00, -0.01, -0.00, 1925.93, 101324.07, 17.51, 17.18, 0, 2, 15, 46, -32, 34
12464256, 4277301, 1.00, -0.01, -0.00, 1925.76, 101328.11, 17.18, 17.20, 0, 2, 8, 41, -24, 34
12464320, 4277401, 1.00, -0.01, -0.01, 1925.68, 101319.97, 17.85, 17.19, 0, 2, 3, 35, -22, 34
12464384, 4277504, 1.00, -0.01, -0.01, 1925.71, 101327.39, 17.23, 17.22, 0, 2, 12, 35, -25, 34
12464448, 4277602, 1.00, -0.02, -0.01, 1925.54, 101324.36, 17.49, 17.23, 0, 2, 23, 34, -29, 34
12464512, 4277702, 1.00, -0.02, -0.01, 1925.63, 101326.92, 17.27, 17.25, 0, 2, 24, 46, -33, 34
12464576, 4277803, 1.00, -0.01, -0.01, 1925.46, 101323.89, 17.53, 17.27, 0, 2, 22, 47, -37, 34
12464640, 4277903, 1.00, -0.01, -0.01, 1925.57, 101322.66, 17.63, 17.29, 0, 2, 22, 53, -35, 34
12464704, 4278001, 1.00, -0.01, -0.00, 1925.54, 101329.36, 17.07, 17.33, 0, 2, 17, 45, -30, 34
12464768, 4278104, 1.00, -0.01, -0.00, 1925.54, 101327.30, 17.24, 17.31, 0, 2, 16, 48, -35, 34
12464832, 4278202, 1.00, -0.01, -0.00, 1925.54, 101329.07, 17.10, 17.32, 0, 2, 11, 44, -26, 34
12464896, 4278300, 1.00, -0.01, -0.01, 1925.32, 101326.22, 17.33, 17.31, 0, 2, 11, 37, -26, 34
12464960, 4278401, 1.00, -0.01, -0.01, 1925.57, 101325.30, 17.41, 17.31, 0, 2, 7, 43, -26, 34
12465024, 4278501, 1.00, -0.01, -0.01, 1925.32, 101318.57, 17.97, 17.32, 0, 2, 11, 42, -33, 34
12465088, 4278599, 1.00, -0.02, -0.01, 1925.46, 101326.85, 17.28, 17.36, 0, 2, 21, 49, -30, 34
12465152, 4278700, 1.00, -0.02, -0.01, 1925.38, 101329.00, 17.10, 17.37, 0, 2, 21, 50, -31, 34
12465216, 4278800, 1.00, -0.01, -0.01, 1925.16, 101325.27, 17.41, 17.37, 0, 2, 15, 40, -33, 34
12465280, 4278900, 1.00, -0.01, -0.00, 1925.19, 101331.22, 16.92, 17.38, 0, 2, 12, 38, -35, 34
12465344, 4279001, 1.00, -0.01, -0.01, 1924.99, 101320.77, 17.79, 17.34, 0, 2, 16, 39, -31, 34
12465408, 4279101, 1.00, -0.01, -0.01, 1924.78, 101322.03, 17.68, 17.35, 0, 2, 14, 44, -31, 34
12465472, 4279201, 1.00, -0.02, -0.01, 1925.24, 101321.35, 17.74, 17.40, 0, 2, 8, 45, -28, 34
12465536, 4279302, 1.00, -0.01, -0.01, 1925.16, 101323.21, 17.58, 17.41, 0, 2, 14, 48, -27, 34
12465600, 4279402, 1.00, -0.02, -0.00, 1924.83, 101330.39, 16.98, 17.43, 0, 2, 13, 44, -32, 34
12465664, 4279502, 1.00, -0.02, -0.01, 1924.94, 101326.83, 17.28, 17.39, 0, 2, 18, 47, -35, 34
12465728, 4279603, 1.00, -0.01, -0.01, 1925.02, 101327.58, 17.22, 17.39, 0, 2, 15, 44, -42, 34
12465792, 4279701, 1.00, -0.01, -0.01, 1924.89, 101324.63, 17.46, 17.38, 0, 2, 17, 41, -33, 34
12465856, 4279801, 1.00, -0.01, -0.01, 1924.89, 101324.92, 17.44, 17.39, 0, 2, 14, 48, -25, 34
12465920, 4279902, 1.00, -0.01, -0.01, 1925.02, 101325.53, 17.39, 17.38, 0, 2, 13, 49, -27, 34
12465984, 4280000, 1.00, -0.01, -0.00, 1925.32, 101324.75, 17.46, 17.37, 0, 2, 12, 48, -30, 34
12466048, 4280100, 1.00, -0.02, -0.00, 1924.78, 101323.21, 17.58, 17.39, 0, 2, 12, 43, -32, 34
12466112, 4280201, 1.00, -0.01, -0.01, 1924.97, 101322.17, 17.67, 17.41, 0, 2, 15, 38, -36, 34
12466176, 4280301, 1.00, -0.01, -0.01, 1925.10, 101324.85, 17.45, 17.43, 0, 2, 17, 45, -35, 34
12466240, 4280399, 1.00, -0.01, -0.01, 1924.80, 101321.78, 17.70, 17.44, 0, 2, 19, 45, -32, 34
12466304, 4280500, 1.00, -0.01, -0.01, 1924.83, 101327.46, 17.23, 17.45, 0, 2, 17, 51, -28, 34
12466368, 4280600, 1.00, -0.02, -0.01, 1924.86, 101322.52, 17.64, 17.42, 0, 2, 13, 47, -26, 34
12466432, 4280700, 1.00, -0.01, -0.00, 1924.64, 101318.80, 17.95, 17.44, 0, 2, 17, 41, -29, 34
12466496, 4280799, 1.00, -0.01, -0.00, 1924.83, 101324.22, 17.50, 17.48, 0, 2, 15, 44, -33, 34
12466560, 4280899, 1.00, -0.02, -0.01, 1924.56, 101326.25, 17.33, 17.48, 0, 2, 15, 40, -29, 34
12466624, 4280999, 1.00, -0.01, -0.01, 1924.72, 101322.50, 17.64, 17.50, 0, 2, 12, 40, -31, 34
12466688, 4281098, 1.00, -0.01, -0.01, 1924.80, 101321.50, 17.72, 17.50, 0, 2, 16, 46, -32, 34
12466752, 4281198, 1.00, -0.01, -0.01, 1924.47, 101324.88, 17.44, 17.50, 0, 2, 13, 43, -28, 34
12466816, 4281300, 1.00, -0.01, -0.00, 1924.61, 101320.49, 17.81, 17.48, 0, 2, 15, 45, -25, 34
12466880, 4281399, 1.00, -0.02, -0.00, 1924.31, 101322.46, 17.65, 17.49, 0, 2, 20, 48, -36, 34
12466944, 4281499, 1.00, -0.01, -0.00, 1924.72, 101325.44, 17.40, 17.53, 0, 2, 19, 35, -29, 34
12467008, 4281600, 0.99, -0.01, -0.01, 1924.58, 101325.42, 17.40, 17.53, 0, 2, 14, 40, -35, 34
12467072, 4281700, 1.00, -0.01, -0.01, 1924.28, 101327.64, 17.21, 17.54, 0, 2, 13, 42, -32, 34
12467136, 4281798, 1.00, -0.01, -0.01, 1924.42, 101330.05, 17.01, 17.53, 0, 2, 12, 46, -30, 34
12467200, 4281899, 1.00, -0.01, -0.01, 1924.39, 101320.58, 17.80, 17.51, 0, 2, 9, 44, -28, 34
12467264, 4281999, 1.00, -0.02, -0.01, 1924.39, 101320.88, 17.78, 17.53, 0, 2, 12, 46, -33, 34
12467328, 4282097, 0.99, -0.02, -0.01, 1924.12, 101318.19, 18.00, 17.55, 0, 2, 16, 44, -37, 34
12467392, 4282200, 1.00, -0.01, -0.01, 1923.95, 101327.21, 17.25, 17.57, 0, 2, 16, 42, -33, 34
12467456, 4282298, 1.00, -0.01, -0.01, 1924.14, 101321.78, 17.70, 17.55, 0, 2, 11, 42, -35, 34
12467520, 4282398, 1.00, -0.01, -0.01, 1924.17, 101321.25, 17.75, 17.56, 0, 2, 20, 48, -31, 34
12467584, 4282497, 1.00, -0.01, -0.01, 1924.42, 101320.07, 17.84, 17.56, 0, 2, 15, 42, -26, 34
12467648, 4282597, 1.00, -0.02, -0.01, 1923.98, 101320.22, 17.83, 17.59, 0, 2, 12, 42, -32, 34
12467712, 4282695, 1.00, -0.02, -0.01, 1924.12, 101324.08, 17.51, 17.60, 0, 2, 18, 40, -33, 34
12467776, 4282796, 1.00, -0.01, -0.01, 1924.17, 101321.55, 17.72, 17.58, 0, 2, 14, 39, -29, 34
12467840, 4282896, 1.00, -0.02, -0.01, 1924.01, 101324.10, 17.51, 17.59, 0, 2, 20, 38, -28, 34
12467904, 4282996, 1.00, -0.01, -0.01, 1924.01, 101323.80, 17.53, 17.60, 0, 2, 19, 43, -32, 34
12467968, 4283097, 1.00, -0.01, -0.01, 1923.95, 101321.92, 17.69, 17.59, 0, 2, 12, 48, -24, 34
12468032, 4283197, 1.00, -0.02, -0.01, 1923.95, 101325.46, 17.40, 17.59, 0, 2, 14, 47, -31, 34
12468096, 4283297, 1.00, -0.01, -0.01, 1923.92, 101327.46, 17.23, 17.59, 0, 2, 20, 44, -35, 34
12468160, 4283398, 1.00, -0.02, -0.01, 1923.95, 101321.92, 17.69, 17.56, 0, 2, 7, 36, -29, 34
12468224, 4283496, 1.00, -0.02, -0.01, 1923.92, 101321.86, 17.70, 17.56, 0, 2, 8, 36, -31, 34
12468288, 4283596, 1.00, -0.00, -0.01, 1924.03, 101324.77, 17.45, 17.58, 0, 2, 9, 37, -32, 34
12468352, 4283697, 1.00, -0.02, -0.01, 1923.84, 101324.33, 17.49, 17.58, 0, 2, 13, 38, -22, 34
12468416, 4283795, 1.00, -0.02, -0.01, 1923.81, 101324.28, 17.49, 17.59, 0, 2, 7, 44, -29, 34
12468480, 4283895, 1.00, -0.01, -0.01, 1923.59, 101324.66, 17.46, 17.62, 0, 2, 12, 47, -37, 34
12468544, 4283996, 1.00, -0.02, -0.01, 1923.35, 101324.07, 17.51, 17.60, 0, 2, 21, 46, -34, 34
12468608, 4284096, 1.00, -0.02, -0.00, 1923.62, 101324.72, 17.46, 17.59, 0, 2, 16, 50, -46, 34
12468672, 4284194, 1.00, -0.01, -0.01, 1923.76, 101328.53, 17.14, 17.56, 0, 2, 26, 45, -35, 34
12468736, 4284295, 1.00, -0.01, -0.01, 1923.81, 101328.10, 17.18, 17.56, 0, 2, 17, 44, -33, 34
12468800, 4284395, 1.00, -0.01, -0.01, 1923.65, 101325.66, 17.38, 17.53, 0, 2, 10, 45, -25, 34
12468864, 4284493, 1.00, -0.01, -0.01, 1923.59, 101327.00, 17.27, 17.51, 0, 2, 9, 41, -23, 34
12468928, 4284594, 1.00, -0.02, -0.01, 1923.81, 101322.82, 17.62, 17.48, 0, 2, 7, 34, -23, 34
12468992, 4284694, 1.00, -0.02, -0.01, 1923.35, 101328.19, 17.17, 17.47, 0, 2, 5, 36, -32, 34
12469056, 4284794, 1.00, -0.01, -0.01, 1923.43, 101327.77, 17.20, 17.45, 0, 2, 18, 42, -37, 34
12469120, 4284893, 1.00, -0.01, -0.01, 1923.59, 101329.07, 17.10, 17.43, 0, 2, 23, 50, -32, 34
12469184, 4284993, 1.00, -0.01, -0.01, 1923.51, 101317.71, 18.04, 17.41, 0, 2, 14, 51, -31, 34
12469248, 4285093, 1.00, -0.01, -0.00, 1923.48, 101324.97, 17.44, 17.43, 0, 2, 13, 49, -31, 34
12469312, 4285192, 1.00, -0.01, -0.00, 1923.18, 101325.75, 17.37, 17.42, 0, 2, 12, 40, -25, 34
12469376, 4285292, 1.00, -0.02, -0.00, 1923.35, 101323.19, 17.58, 17.42, 0, 2, 7, 37, -29, 34
12469440, 4285394, 1.00, -0.01, -0.01, 1922.99, 101320.92, 17.77, 17.44, 0, 2, 16, 38, -36, 34
12469504, 4285495, 1.00, -0.01, -0.01, 1923.48, 101323.50, 17.56, 17.44, 0, 2, 18, 46, -31, 34
12469568, 4285593, 1.00, -0.02, -0.01, 1923.15, 101321.58, 17.72, 17.43, 0, 2, 15, 51, -26, 34
12469632, 4285696, 1.00, -0.01, -0.01, 1922.96, 101324.36, 17.49, 17.45, 0, 2, 18, 51, -30, 34
12469696, 4285794, 1.00, -0.01, -0.00, 1923.37, 101324.13, 17.51, 17.45, 0, 2, 22, 41, -33, 34
12469760, 4285892, 1.00, -0.01, -0.00, 1923.07, 101318.17, 18.00, 17.45, 0, 2, 17, 44, -28, 34
12469824, 4285992, 1.00, -0.02, -0.01, 1923.07, 101327.58, 17.22, 17.47, 0, 2, 9, 38, -34, 34
12469888, 4286093, 1.00, -0.01, -0.02, 1923.07, 101324.94, 17.44, 17.46, 0, 2, 15, 42, -33, 34
12469952, 4286191, 1.00, -0.01, -0.01, 1923.07, 101324.35, 17.49, 17.46, 0, 2, 5, 51, -29, 34
12470016, 4286291, 1.00, -0.02, -0.01, 1923.13, 101325.05, 17.43, 17.48, 0, 2, 15, 51, -29, 34
12470080, 4286392, 1.00, -0.01, -0.01, 1922.88, 101322.72, 17.62, 17.49, 0, 2, 10, 50, -26, 34
12470144, 4286492, 1.00, -0.02, -0.00, 1923.04, 101322.82, 17.62, 17.50, 0, 2, 21, 42, -31, 34
12470208, 4286590, 1.00, -0.01, -0.00, 1923.29, 101327.21, 17.25, 17.52, 0, 2, 10, 37, -31, 34
12470272, 4286691, 1.00, -0.01, -0.01, 1922.80, 101321.67, 17.71, 17.50, 0, 2, 13, 30, -32, 34
12470336, 4286791, 1.00, -0.01, -0.01, 1922.74, 101328.02, 17.18, 17.53, 0, 2, 15, 39, -28, 34
12470400, 4286892, 1.00, -0.01, -0.02, 1922.69, 101320.22, 17.83, 17.53, 0, 2, 8, 45, -23, 34
12470464, 4286992, 1.00, -0.02, -0.01, 1922.85, 101325.89, 17.36, 17.56, 0, 2, 18, 49, -24, 34
12470528, 4287094, 1.00, -0.02, -0.01, 1922.74, 101320.38, 17.82, 17.53, 0, 2, 22, 47, -36, 34
12470592, 4287195, 1.00, -0.01, -0.00, 1922.71, 101321.16, 17.75, 17.55, 0, 2, 21, 46, -40, 34
12470656, 4287293, 1.00, -0.01, -0.00, 1922.55, 101322.25, 17.66, 17.57, 0, 2, 22, 35, -35, 34
12470720, 4287395, 1.00, -0.01, -0.01, 1922.60, 101321.21, 17.75, 17.57, 0, 2, 14, 37, -36, 34
12470784, 4287496, 1.00, -0.00, -0.01, 1922.71, 101327.33, 17.24, 17.57, 0, 2, 14, 45, -30, 34
12470848, 4287594, 1.00, -0.01, -0.01, 1922.49, 101318.61, 17.97, 17.55, 0, 2, 4, 45, -21, 34
12470912, 4287696, 1.00, -0.02, -0.01, 1922.55, 101322.25, 17.66, 17.57, 0, 2, 11, 45, -26, 34
12470976, 4287797, 1.00, -0.02, -0.01, 1922.63, 101327.46, 17.23, 17.58, 0, 2, 17, 46, -37, 34
12471040, 4287895, 1.00, -0.01, -0.01, 1922.30, 101321.13, 17.76, 17.56, 0, 2, 18, 42, -34, 34
12471104, 4287997, 1.00, -0.01, -0.01, 1922.49, 101325.97, 17.35, 17.55, 0, 2, 16, 45, -34, 34
12471168, 4288098, 1.00, -0.01, -0.01, 1922.55, 101320.78, 17.79, 17.56, 0, 2, 19, 43, -36, 34
12471232, 4288198, 1.00, -0.01, -0.01, 1922.44, 101326.71, 17.29, 17.57, 0, 2, 13, 42, -22, 34
12471296, 4288296, 1.00, -0.01, -0.01, 1922.41, 101329.30, 17.07, 17.56, 0, 2, 8, 42, -28, 34
12471360, 4288397, 1.00, -0.02, -0.00, 1922.47, 101324.44, 17.48, 17.55, 0, 2, 9, 43, -23, 34
12471424, 4288495, 1.00, -0.02, -0.00, 1922.71, 101328.50, 17.14, 17.54, 0, 2, 5, 39, -29, 34
12471488, 4288595, 1.00, -0.02, -0.01, 1922.33, 101327.94, 17.19, 17.51, 0, 2, 4, 41, -36, 34
12471552, 4288696, 1.00, -0.01, -0.01, 1922.49, 101327.44, 17.23, 17.51, 0, 2, 12, 43, -37, 34
12471616, 4288796, 1.00, -0.01, -0.01, 1922.47, 101319.74, 17.87, 17.49, 0, 2, 16, 52, -33, 34
12471680, 4288897, 1.00, -0.02, -0.01, 1922.55, 101330.49, 16.98, 17.52, 0, 2, 16, 55, -34, 34
12471744, 4288995, 1.00, -0.01, -0.01, 1922.38, 101325.71, 17.38, 17.48, 0, 2, 21, 51, -32, 34
12471808, 4289095, 1.00, -0.01, -0.00, 1922.36, 101321.24, 17.75, 17.48, 0, 2, 13, 46, -28, 34
12471872, 4289196, 1.00, -0.02, -0.00, 1922.69, 101323.75, 17.54, 17.48, 0, 2, 13, 38, -28, 34
12471936, 4289294, 1.00, -0.02, -0.01, 1922.17, 101319.33, 17.90, 17.47, 0, 2, 12, 34, -29, 34
12472000, 4289394, 1.00, -0.01, -0.01, 1922.33, 101324.71, 17.46, 17.48, 0, 2, 6, 40, -29, 34
12472064, 4289497, 1.00, -0.01, -0.01, 1922.19, 101319.99, 17.85, 17.46, 0, 2, 12, 49, -32, 34
12472128, 4289595, 1.00, -0.02, -0.01, 1922.17, 101329.91, 17.02, 17.49, 0, 2, 14, 51, -31, 34
12472192, 4289697, 1.00, -0.01, -0.01, 1922.14, 101322.21, 17.67, 17.45, 0, 2, 22, 52, -38, 34
12472256, 4289800, 1.00, -0.01, -0.00, 1922.06, 101324.67, 17.46, 17.45, 0, 2, 23, 50, -37, 34
12472320, 4289898, 1.00, -0.01, -0.00, 1921.97, 101325.67, 17.38, 17.46, 0, 2, 11, 46, -32, 34
12472384, 4290000, 1.00, -0.01, -0.01, 1921.89, 101322.24, 17.66, 17.44, 0, 2, 12, 33, -33, 34
12472448, 4290103, 1.00, -0.01, -0.01, 1921.56, 101317.67, 18.04, 17.46, 0, 2, 17, 38, -28, 34
12472512, 4290201, 1.00, -0.01, -0.01, 1921.78, 101317.86, 18.03, 17.47, 0, 2, 11, 42, -23, 34
12472576, 4290301, 1.00, -0.02, -0.01, 1921.86, 101318.94, 17.94, 17.51, 0, 2, 15, 45, -26, 34
12472640, 4290402, 1.00, -0.02, -0.01, 1921.86, 101318.64, 17.96, 17.55, 0, 2, 23, 51, -30, 34
12472704, 4290502, 1.00, -0.01, -0.01, 1921.89, 101326.64, 17.30, 17.57, 0, 2, 19, 47, -40, 34
12472768, 4290600, 1.00, -0.01, -0.01, 1921.81, 101320.60, 17.80, 17.58, 0, 2, 22, 41, -40, 34
12472832, 4290701, 1.00, -0.01, -0.01, 1921.89, 101322.53, 17.64, 17.61, 0, 2, 23, 43, -33, 34
12472896, 4290801, 1.00, -0.00, -0.01, 1921.73, 101325.67, 17.38, 17.63, 0, 2, 16, 45, -30, 34
12472960, 4290902, 1.00, -0.01, -0.01, 1921.95, 101324.16, 17.50, 17.61, 0, 2, 17, 47, -26, 34
12473024, 4291002, 1.00, -0.02, -0.00, 1921.64, 101322.53, 17.64, 17.63, 0, 2, 7, 40, -24, 34
12473088, 4291102, 1.00, -0.02, -0.00, 1921.75, 101322.50, 17.64, 17.65, 0, 2, 5, 39, -30, 34
12473152, 4291203, 1.00, -0.02, -0.01, 1921.70, 101324.16, 17.50, 17.64, 0, 2, 16, 39, -35, 34
12473216, 4291301, 1.00, -0.01, -0.01, 1921.56, 101320.02, 17.85, 17.64, 0, 2, 18, 40, -37, 34
12473280, 4291401, 1.00, -0.01, -0.01, 1921.92, 101323.17, 17.58, 17.64, 0, 2, 20, 48, -41, 34
12473344, 4291502, 1.00, -0.01, -0.01, 1921.64, 101322.24, 17.66, 17.64, 0, 2, 19, 52, -38, 34
12473408, 4291600, 1.00, -0.01, -0.01, 1921.86, 101321.58, 17.72, 17.63, 0, 2, 19, 52, -29, 34
12473472, 4291700, 1.00, -0.01, -0.00, 1921.64, 101324.58, 17.47, 17.67, 0, 2, 11, 45, -25, 34
12473536, 4291801, 1.00, -0.02, -0.00, 1921.67, 101326.44, 17.32, 17.66, 0, 2, 7, 37, -25, 34
12473600, 4291901, 1.00, -0.02, -0.00, 1921.84, 101319.77, 17.87, 17.65, 0, 2, 7, 41, -31, 34
12473664, 4291999, 1.00, -0.02, -0.01, 1921.64, 101326.94, 17.27, 17.68, 0, 2, 18, 35, -36, 34
12473728, 4292102, 1.00, -0.01, -0.02, 1921.37, 101323.39, 17.57, 17.66, 0, 2, 22, 42, -37, 34
12473792, 4292200, 1.00, -0.01, -0.02, 1921.37, 101321.63, 17.71, 17.63, 0, 2, 21, 56, -38, 34
12473856, 4292300, 1.00, -0.01, -0.01, 1921.40, 101319.64, 17.88, 17.62, 0, 2, 16, 54, -33, 34
12473920, 4292403, 1.00, -0.01, 0.00, 1921.31, 101323.86, 17.53, 17.61, 0, 2, 17, 57, -26, 34
12473984, 4292503, 1.00, -0.02, 0.00, 1921.37, 101326.63, 17.30, 17.59, 0, 2, 9, 46, -29, 34
12474048, 4292603, 1.00, -0.01, -0.00, 1921.42, 101327.08, 17.26, 17.59, 0, 2, 10, 33, -31, 34
12474112, 4292706, 1.00, -0.01, -0.01, 1920.96, 101318.64, 17.96, 17.56, 0, 2, 12, 33, -37, 34
12474176, 4292806, 1.00, -0.01, -0.01, 1921.40, 101326.99, 17.27, 17.58, 0, 2, 13, 41, -31, 34
12474240, 4292907, 1.00, -0.01, -0.02, 1920.98, 101319.89, 17.86, 17.58, 0, 2, 21, 48, -33, 34
12474304, 4293007, 1.00, -0.01, -0.01, 1921.09, 101320.13, 17.84, 17.59, 0, 2, 12, 52, -28, 34
12474368, 4293107, 1.00, -0.02, -0.00, 1921.34, 101322.46, 17.65, 17.60, 0, 2, 23, 55, -33, 34
12474432, 4293208, 1.00, -0.01, -0.00, 1921.12, 101318.74, 17.95, 17.60, 0, 2, 18, 40, -35, 34
12474496, 4293306, 1.00, -0.01, -0.00, 1921.42, 101322.38, 17.65, 17.63, 0, 2, 12, 35, -39, 34
12474560, 4293406, 1.00, -0.01, -0.01, 1921.07, 101327.13, 17.26, 17.62, 0, 2, 16, 33, -33, 34
12474624, 4293507, 1.00, -0.01, -0.02, 1921.09, 101324.83, 17.45, 17.60, 0, 2, 11, 36, -28, 34
12474688, 4293605, 1.00, -0.01, -0.01, 1921.20, 101325.39, 17.40, 17.59, 0, 2, 12, 42, -22, 34
12474752, 4293705, 1.00, -0.02, -0.01, 1921.29, 101322.92, 17.61, 17.57, 0, 2, 16, 50, -26, 34
12474816, 4293808, 1.00, -0.02, -0.00, 1921.15, 101320.88, 17.78, 17.58, 0, 2, 17, 55, -36, 34
12474880, 4293906, 1.00, -0.01, 0.00, 1920.90, 101318.22, 18.00, 17.60, 0, 2, 18, 44, -35, 34
12474944, 4294008, 1.00, -0.01, -0.00, 1920.85, 101325.72, 17.37, 17.61, 0, 2, 20, 39, -37, 34
12475008, 4294111, 1.00, -0.01, -0.01, 1920.82, 101326.24, 17.33, 17.61, 0, 2, 9, 43, -31, 34
12475072, 4294209, 1.00, -0.01, -0.01, 1921.04, 101324.42, 17.48, 17.60, 0, 2, 14, 41, -28, 34
12475136, 4294311, 1.00, -0.01, -0.01, 1920.76, 101323.19, 17.58, 17.59, 0, 2, 2, 47, -20, 34
12475200, 4294414, 1.00, -0.02, -0.01, 1920.60, 101324.60, 17.47, 17.58, 0, 2, 11, 44, -24, 34
12475264, 4294512, 1.00, -0.02, -0.01, 1920.49, 101326.41, 17.32, 17.57, 0, 2, 15, 42, -37, 34
12475328, 4294615, 1.00, -0.01, -0.00, 1920.63, 101325.27, 17.41, 17.57, 0, 2, 18, 40, -41, 34
12475392, 4294715, 1.00, -0.01, -0.01, 1920.79, 101323.25, 17.58, 17.58, 0, 2, 19, 39, -41, 34
12475456, 4294815, 1.00, -0.00, -0.01, 1920.76, 101324.36, 17.49, 17.56, 0, 2, 8, 38, -30, 34
12475520, 4294916, 1.00, -0.01, -0.01, 1920.71, 101325.44, 17.40, 17.57, 0, 2, 1, 39, -18, 34
12475584, 4295016, 1.00, -0.02, -0.01, 1920.43, 101327.17, 17.25, 17.55, 0, 2, 0, 42, -19, 34
12475648, 4295116, 1.00, -0.02, -0.01, 1920.71, 101333.08, 16.76, 17.52, 0, 2, 13, 41, -25, 34
12475712, 4295217, 1.00, -0.02, -0.01, 1920.60, 101328.71, 17.12, 17.48, 0, 2, 6, 50, -39, 34
12475776, 4295317, 1.00, -0.02, -0.01, 1920.68, 101327.44, 17.23, 17.44, 0, 2, 23, 51, -41, 34
12475840, 4295417, 1.00, -0.00, -0.01, 1920.63, 101328.80, 17.12, 17.41, 0, 2, 40, 48, -45, 34
12475904, 4295518, 1.00, -0.01, -0.01, 1920.43, 101330.11, 17.01, 17.41, 0, 2, 23, 50, -36, 34
12475968, 4295618, 1.00, -0.01, -0.01, 1920.38, 101331.75, 16.87, 17.39, 0, 2, 12, 48, -30, 34
12476032, 4295718, 1.00, -0.01, -0.00, 1920.57, 101324.53, 17.47, 17.36, 0, 2, 9, 40, -20, 34
12476096, 4295819, 1.00, -0.02, -0.00, 1920.52, 101327.05, 17.26, 17.35, 0, 2, 1, 42, -21, 34
12476160, 4295917, 1.00, -0.02, -0.01, 1920.52, 101328.22, 17.16, 17.33, 0, 2, 3, 37, -30, 34
12476224, 4296019, 1.00, -0.02, -0.01, 1920.32, 101324.27, 17.49, 17.28, 0, 2, 13, 36, -36, 34
12476288, 4296118, 1.00, -0.01, -0.02, 1920.74, 101333.13, 16.76, 17.29, 0, 2, 24, 46, -41, 34
12476352, 4296216, 1.00, -0.01, -0.01, 1920.32, 101325.44, 17.40, 17.26, 0, 2, 24, 54, -35, 34
12476416, 4296316, 1.00, -0.01, -0.01, 1920.52, 101327.94, 17.19, 17.26, 0, 2, 19, 52, -31, 34
12476480, 4296417, 1.00, -0.01, -0.00, 1920.32, 101331.61, 16.88, 17.24, 0, 2, 18, 49, -31, 34
12476544, 4296515, 1.00, -0.01, 0.00, 1920.43, 101322.17, 17.67, 17.21, 0, 2, 11, 37, -24, 34
12476608, 4296615, 1.00, -0.02, -0.00, 1920.10, 101329.94, 17.02, 17.23, 0, 2, 7, 30, -31, 34
12476672, 4296718, 1.00, -0.02, -0.01, 1920.16, 101325.08, 17.43, 17.21, 0, 2, 7, 28, -34, 34
12476736, 4296816, 1.00, -0.02, -0.02, 1919.99, 101325.55, 17.39, 17.20, 0, 2, 19, 41, -33, 34
12476800, 4296916, 1.00, -0.01, -0.02, 1920.24, 101327.89, 17.19, 17.19, 0, 2, 18, 47, -34, 34
12476864, 4297017, 1.00, -0.01, -0.01, 1920.46, 101327.52, 17.23, 17.18, 0, 2, 23, 54, -29, 34
12476928, 4297115, 1.00, -0.01, -0.00, 1920.02, 101327.38, 17.24, 17.18, 0, 2, 19, 51, -31, 34
12476992, 4297216, 1.00, -0.01, -0.00, 1920.05, 101328.91, 17.11, 17.21, 0, 2, 16, 45, -32, 34
12477056, 4297316, 0.99, -0.02, -0.00, 1919.99, 101325.25, 17.41, 17.21, 0, 2, 11, 36, -31, 34
12477120, 4297416, 1.00, -0.01, -0.01, 1919.99, 101322.61, 17.63, 17.22, 0, 2, 7, 28, -23, 34
12477184, 4297517, 1.00, -0.01, -0.02, 1920.24, 101325.25, 17.41, 17.24, 0, 2, 12, 38, -28, 34
12477248, 4297615, 1.00, -0.01, -0.01, 1920.16, 101327.72, 17.21, 17.26, 0, 2, 10, 42, -26, 34
12477312, 4297715, 0.99, -0.02, -0.01, 1919.80, 101328.36, 17.15, 17.28, 0, 2, 11, 51, -27, 34
12477376, 4297816, 1.00, -0.01, -0.01, 1920.02, 101324.14, 17.51, 17.26, 0, 2, 24, 53, -36, 34
12477440, 4297916, 1.00, -0.01, -0.00, 1919.80, 101325.42, 17.40, 17.27, 0, 2, 20, 46, -35, 34
12477504, 4298014, 1.00, -0.01, -0.00, 1919.91, 101324.21, 17.50, 17.29, 0, 2, 22, 41, -37, 34
12477568, 4298117, 1.00, -0.01, -0.01, 1919.53, 101327.46, 17.23, 17.29, 0, 2, 15, 38, -35, 34
12477632, 4298215, 1.00, -0.01, -0.01, 1919.83, 101330.49, 16.98, 17.31, 0, 2, 14, 41, -31, 34
12477696, 4298315, 1.00, -0.01, -0.01, 1919.66, 101322.49, 17.64, 17.29, 0, 2, 8, 42, -23, 34
12477760, 4298418, 1.00, -0.02, -0.01, 1919.83, 101324.61, 17.47, 17.31, 0, 2, 11, 49, -22, 34
12477824, 4298516, 1.00, -0.02, -0.01, 1919.47, 101326.14, 17.34, 17.34, 0, 2, 14, 47, -28, 34
12477888, 4298616, 1.00, -0.02, -0.01, 1919.77, 101327.13, 17.26, 17.32, 0, 2, 19, 42, -39, 34
12477952, 4298719, 1.00, -0.01, -0.00, 1919.58, 101324.66, 17.46, 17.34, 0, 2, 20, 42, -41, 34
12478016, 4298817, 1.00, -0.01, -0.01, 1919.44, 101326.67, 17.29, 17.34, 0, 2, 24, 41, -34, 34
12478080, 4298917, 1.00, -0.01, -0.01, 1919.42, 101324.86, 17.44, 17.33, 0, 2, 14, 43, -26, 34
12478144, 4299020, 1.00, -0.01, -0.01, 1919.66, 101325.71, 17.38, 17.35, 0, 2, 13, 44, -24, 34
12478208, 4299118, 1.00, -0.01, -0.00, 1919.33, 101325.25, 17.41, 17.35, 0, 2, 16, 44, -23, 34
12478272, 4299218, 1.00, -0.02, -0.01, 1919.20, 101328.44, 17.15, 17.36, 0, 2, 15, 43, -30, 34
12478336, 4299321, 1.00, -0.02, -0.01, 1919.28, 101323.35, 17.57, 17.36, 0, 2, 19, 44, -35, 34
12478400, 4299421, 1.00, -0.01, -0.01, 1919.11, 101322.10, 17.67, 17.37, 0, 2, 20, 43, -38, 34
12478464, 4299522, 1.00, -0.01, -0.01, 1919.33, 101321.13, 17.76, 17.37, 0, 2, 17, 47, -34, 34
12478528, 4299622, 1.00, -0.01, -0.01, 1919.09, 101322.92, 17.61, 17.39, 0, 2, 15, 46, -33, 34
12478592, 4299722, 1.00, -0.01, -0.00, 1919.03, 101324.27, 17.49, 17.41, 0, 2, 11, 50, -22, 34
12478656, 4299823, 1.00, -0.02, -0.01, 1919.25, 101322.69, 17.63, 17.43, 0, 2, 7, 44, -18, 34
12478720, 4299921, 1.00, -0.02, -0.01, 1919.09, 101320.57, 17.80, 17.43, 0, 2, 13, 41, -32, 34
12478784, 4300021, 1.00, -0.01, -0.01, 1919.28, 101323.92, 17.52, 17.45, 0, 2, 20, 33, -37, 34
12478848, 4300122, 1.00, -0.01, -0.01, 1919.22, 101324.69, 17.46, 17.46, 0, 2, 17, 41, -38, 34
12478912, 4300220, 1.00, -0.01, -0.01, 1919.31, 101324.58, 17.47, 17.47, 0, 2, 19, 46, -33, 34
12478976, 4300320, 1.00, -0.01, -0.01, 1919.22, 101331.75, 16.87, 17.49, 0, 2, 17, 56, -27, 34
12479040, 4300421, 1.00, -0.01, -0.01, 1919.20, 101326.97, 17.27, 17.45, 0, 2, 16, 50, -28, 34
12479104, 4300521, 1.00, -0.02, -0.00, 1919.03, 101328.67, 17.13, 17.44, 0, 2, 12, 45, -28, 34
12479168, 4300619, 1.00, -0.02, -0.01, 1919.00, 101322.44, 17.65, 17.43, 0, 2, 10, 42, -36, 34
12479232, 4300720, 1.00, -0.01, -0.01, 1919.00, 101326.57, 17.30, 17.45, 0, 2, 14, 36, -40, 34
12479296, 4300820, 1.00, -0.01, -0.01, 1918.98, 101322.10, 17.67, 17.44, 0, 2, 15, 39, -32, 34
12479360, 4300918, 1.00, -0.01, -0.01, 1919.00, 101325.38, 17.40, 17.46, 0, 2, 14, 49, -30, 34
12479424, 4301019, 1.00, -0.01, -0.00, 1918.95, 101324.10, 17.51, 17.46, 0, 2, 13, 55, -27, 34
12479488, 4301119, 1.00, -0.01, -0.00, 1918.84, 101322.38, 17.65, 17.47, 0, 2, 20, 49, -29, 34
12479552, 4301219, 1.00, -0.01, -0.00, 1918.84, 101324.14, 17.51, 17.48, 0, 2, 12, 45, -29, 34
12479616, 4301318, 1.00, -0.02, -0.00, 1918.57, 101325.58, 17.39, 17.50, 0, 2, 18, 36, -36, 34
12479680, 4301418, 1.00, -0.01, -0.01, 1918.54, 101317.85, 18.03, 17.49, 0, 2, 14, 37, -35, 34
12479744, 4301518, 1.00, -0.01, -0.01, 1918.98, 101321.80, 17.70, 17.51, 0, 2, 12, 41, -35, 34
12479808, 4301617, 1.00, -0.01, -0.01, 1918.73, 101318.30, 17.99, 17.50, 0, 2, 11, 48, -33, 34
12479872, 4301717, 1.00, -0.02, -0.01, 1918.43, 101322.30, 17.66, 17.52, 0, 2, 16, 46, -28, 34
12479936, 4301819, 1.00, -0.02, -0.01, 1918.54, 101325.78, 17.37, 17.53, 0, 2, 18, 48, -32, 34
12480000, 4301920, 1.00, -0.02, -0.00, 1918.92, 101326.66, 17.30, 17.52, 0, 2, 17, 43, -38, 34
12480064, 4302018, 1.00, -0.01, -0.01, 1918.81, 101324.08, 17.51, 17.49, 0, 2, 17, 38, -36, 34
12480128, 4302118, 1.00, -0.01, -0.01, 1918.70, 101326.17, 17.34, 17.49, 0, 2, 13, 42, -29, 34
12480192, 4302219, 1.00, -0.01, -0.01, 1918.65, 101323.39, 17.57, 17.49, 0, 2, 13, 41, -24, 34
12480256, 4302317, 1.00, -0.01, -0.01, 1918.32, 101322.05, 17.68, 17.49, 0, 2, 15, 49, -28, 34
12480320, 4302419, 1.00, -0.01, -0.00, 1918.35, 101322.41, 17.65, 17.53, 0, 2, 15, 45, -32, 34
12480384, 4302518, 1.00, -0.01, -0.00, 1918.68, 101325.53, 17.39, 17.55, 0, 2, 15, 43, -35, 34
12480448, 4302618, 1.00, -0.02, -0.01, 1918.43, 101321.71, 17.71, 17.56, 0, 2, 19, 39, -35, 34
12480512, 4302716, 1.00, -0.01, -0.01, 1918.43, 101321.41, 17.73, 17.57, 0, 2, 16, 41, -31, 34
12480576, 4302817, 1.00, -0.01, -0.01, 1918.57, 101318.52, 17.97, 17.59, 0, 2, 12, 43, -29, 34
12480640, 4302915, 1.00, -0.01, -0.01, 1918.46, 101319.41, 17.90, 17.60, 0, 2, 9, 45, -31, 34
12480704, 4303015, 1.00, -0.02, -0.01, 1918.59, 101325.63, 17.38, 17.63, 0, 2, 13, 46, -29, 34
12480768, 4303118, 1.00, -0.01, -0.00, 1918.46, 101327.64, 17.21, 17.62, 0, 2, 13, 50, -26, 34
12480832, 4303216, 1.00, -0.02, -0.01, 1918.24, 101328.02, 17.18, 17.60, 0, 2, 18, 46, -36, 34
12480896, 4303316, 1.00, -0.01, -0.01, 1917.99, 101320.13, 17.84, 17.58, 0, 2, 15, 40, -39, 34
12480960, 4303417, 1.00, -0.01, -0.01, 1918.29, 101326.11, 17.34, 17.61, 0, 2, 15, 44, -35, 34
12481024, 4303517, 1.00, -0.00, -0.01, 1918.18, 101322.92, 17.61, 17.57, 0, 2, 13, 45, -32, 34
12481088, 4303618, 1.00, -0.01, -0.01, 1918.13, 101325.14, 17.42, 17.57, 0, 2, 16, 47, -24, 34
12481152, 4303716, 1.00, -0.01, -0.00, 1917.91, 101321.13, 17.76, 17.54, 0, 2, 14, 51, -29, 34
12481216, 4303816, 1.00, -0.02, -0.00, 1918.10, 101323.03, 17.60, 17.54, 0, 2, 15, 48, -30, 34
12481280, 4303917, 1.00, -0.02, -0.01, 1917.80, 101325.88, 17.36, 17.55, 0, 2, 17, 45, -35, 34
12481344, 4304015, 1.00, -0.01, -0.01, 1917.85, 101321.88, 17.69, 17.56, 0, 2, 17, 46, -30, 34
12481408, 4304115, 1.00, -0.01, -0.01, 1917.85, 101321.30, 17.74, 17.57, 0, 2, 16, 45, -32, 34
12481472, 4304218, 1.00, -0.01, -0.01, 1917.82, 101323.58, 17.55, 17.59, 0, 2, 21, 49, -31, 34
12481536, 4304316, 1.00, -0.01, -0.01, 1917.74, 101318.39, 17.98, 17.59, 0, 2, 15, 44, -29, 34
12481600, 4304418, 1.00, -0.01, -0.00, 1917.80, 101322.64, 17.63, 17.60, 0, 2, 11, 43, -27, 34
12481664, 4304521, 1.00, -0.02, -0.01, 1917.88, 101325.49, 17.39, 17.60, 0, 2, 6, 38, -33, 34
12481728, 4304619, 1.00, -0.02, -0.01, 1917.88, 101325.49, 17.39, 17.60, 0, 2, 14, 37, -28, 34
12481792, 4304721, 1.00, -0.01, -0.01, 1917.66, 101323.78, 17.53, 17.58, 0, 2, 12, 35, -37, 34
12481856, 4304824, 1.00, -0.01, -0.01, 1917.93, 101319.72, 17.87, 17.57, 0, 2, 13, 44, -32, 34
12481920, 4304922, 1.00, -0.01, -0.01, 1917.49, 101323.13, 17.59, 17.57, 0, 2, 17, 48, -32, 34
12481984, 4305022, 1.00, -0.01, -0.01, 1917.69, 101321.78, 17.70, 17.55, 0, 2, 16, 49, -27, 34
12482048, 4305123, 1.00, -0.01, -0.00, 1917.25, 101321.69, 17.71, 17.57, 0, 2, 16, 43, -29, 34
12482112, 4305223, 1.00, -0.02, -0.00, 1917.66, 101324.96, 17.44, 17.59, 0, 2, 17, 40, -30, 34
12482176, 4305321, 1.00, -0.01, -0.01, 1917.49, 101319.30, 17.91, 17.61, 0, 2, 9, 37, -32, 34
12482240, 4305422, 1.00, -0.01, -0.01, 1917.60, 101321.60, 17.72, 17.61, 0, 2, 9, 38, -32, 34
12482304, 4305522, 1.00, -0.01, -0.01, 1917.49, 101325.77, 17.37, 17.63, 0, 2, 9, 42, -32, 34
12482368, 4305623, 1.00, -0.01, -0.01, 1917.49, 101324.30, 17.49, 17.62, 0, 2, 13, 49, -33, 34
12482432, 4305723, 1.00, -0.01, -0.01, 1917.08, 101320.14, 17.84, 17.62, 0, 2, 18, 48, -34, 34
12482496, 4305823, 1.00, -0.01, -0.00, 1917.58, 101323.30, 17.57, 17.63, 0, 2, 22, 45, -30, 34
12482560, 4305924, 1.00, -0.02, -0.00, 1917.63, 101324.02, 17.52, 17.62, 0, 2, 19, 42, -36, 34
12482624, 4306022, 1.00, -0.01, -0.01, 1917.49, 101319.89, 17.86, 17.63, 0, 2, 15, 40, -32, 34
12482688, 4306122, 1.00, -0.01, -0.01, 1917.27, 101321.16, 17.75, 17.64, 0, 2, 13, 43, -28, 34
12482752, 4306223, 1.00, -0.01, -0.01, 1917.14, 101320.25, 17.83, 17.64, 0, 2, 16, 40, -29, 34
12482816, 4306321, 1.00, -0.02, -0.00, 1917.33, 101320.11, 17.84, 17.65, 0, 2, 11, 45, -33, 34
12482880, 4306421, 1.00, -0.01, -0.00, 1917.41, 101319.10, 17.93, 17.65, 0, 2, 16, 44, -27, 34
12482944, 4306522, 1.00, -0.02, -0.00, 1917.41, 101322.03, 17.68, 17.66, 0, 2, 14, 44, -35, 34
12483008, 4306622, 1.00, -0.01, -0.01, 1917.08, 101324.25, 17.49, 17.68, 0, 2, 14, 46, -33, 34
12483072, 4306720, 1.00, -0.01, -0.01, 1917.38, 101321.69, 17.71, 17.68, 0, 2, 17, 42, -34, 34
12483136, 4306821, 1.00, -0.01, -0.01, 1917.16, 101324.44, 17.48, 17.69, 0, 2, 19, 44, -31, 34
12483200, 4306921, 1.00, -0.01, -0.01, 1917.16, 101314.44, 18.31, 17.67, 0, 2, 10, 44, -34, 34
12483264, 4307019, 1.00, -0.01, -0.01, 1917.19, 101323.61, 17.55, 17.71, 0, 2, 11, 49, -28, 34
12483328, 4307122, 1.00, -0.01, -0.01, 1917.05, 101322.74, 17.62, 17.70, 0, 2, 13, 40, -27, 34
12483392, 4307220, 1.00, -0.01, -0.00, 1917.22, 101326.92, 17.27, 17.70, 0, 2, 11, 42, -31, 34
12483456, 4307320, 1.00, -0.01, -0.00, 1916.94, 101325.96, 17.35, 17.69, 0, 2, 11, 41, -32, 34
12483520, 4307423, 1.00, -0.01, -0.01, 1916.92, 101319.44, 17.90, 17.66, 0, 2, 20, 40, -25, 34
12483584, 4307523, 1.00, -0.01, -0.01, 1917.00, 101326.72, 17.29, 17.67, 0, 2, 12, 43, -34, 34
12483648, 4307623, 1.00, -0.01, -0.01, 1916.75, 101323.19, 17.58, 17.66, 0, 2, 17, 46, -32, 34
